Time,Loop_Slip_Count,Altitude_BMP390,Temperature_BMP390,Acceleration_X_BNO085,Acceleration_Y_BNO085,Acceleration_Z_BNO085,Magnetic_X_BNO085,Magnetic_Y_BNO085,Magnetic_Z_BNO085,Gyro_X_BNO085,Gyro_Y_BNO085,Gyro_Z_BNO085,Quaternion_W_BNO085,Quaternion_X_BNO085,Quaternion_Y_BNO085,Quaternion_Z_BNO085,Acceleration_X_ICM20649,Acceleration_Y_ICM20649,Acceleration_Z_ICM20649,Gyro_X_ICM20649,Gyro_Y_ICM20649,Gyro_Z_ICM20649,Altitude_Errors_BMP390,Temperature_Errors_BMP390,Acceleration_Errors_BNO085,Magnetic_Errors_BNO085,Gyro_Errors_BNO085,Acceleration_Errors_ICM20649,Gyro_Errors_ICM20649
0.0,0,287.8232121688987,24.77238895953633,-0.18359375,0.4921875,9.68359375,28.0625,-5.625,-41.875,0.00390625,-0.09375,0.015625,0.019287109375,0.01470947265625,0.75567626953125,0.65447998046875,0.0383072265625,-0.5746083984375,10.256759912109374,0.02131699908396947,0.003730474839694657,0.01945176166412214,0,0,0,0,0,0,0
0.03333330154418945,0,287.2536466056949,24.790652718627825,0.203125,0.453125,9.71875,26.9375,-7.0625,-42.3125,0.00390625,-0.09375,0.015625,0.019287109375,0.01470947265625,0.75567626953125,0.65447998046875,0.05746083984375,-0.507570751953125,10.28549033203125,0.05275957273282444,-0.0005329249770992366,0.017053599267175572,0,0,0,0,0,0,0
0.0666666030883789,0,286.97508475156366,24.808916425565258,0.046875,0.4921875,9.72265625,26.9375,-7.0625,-42.3125,0.001953125,0.021484375,0.001953125,0.0194091796875,0.01458740234375,0.75701904296875,0.6529541015625,0.09576806640624999,-0.411802685546875,10.24718310546875,-0.01279019945038168,0.004263399816793893,0.01119142451908397,0,0,0,0,0,0,0
0.09999990463256836,0,287.453885831324,24.8180482594762,0.125,0.4921875,9.71875,26.9375,-7.0625,-42.75,0.0,0.017578125,0.001953125,0.0194091796875,0.01458740234375,0.75701904296875,0.6529541015625,0.1149216796875,-0.51714755859375,10.151415039062499,0.05249311024427481,0.00479632479389313,0.007727412167938932,0,0,0,0,0,0,0
0.1333332061767578,0,287.2661148922927,24.8180482594762,0.1640625,0.453125,9.71875,28.0625,-6.3125,-43.5625,0.0,0.017578125,0.001953125,0.0196533203125,0.01446533203125,0.75860595703125,0.651123046875,0.086191259765625,-0.17238251953125,10.199299072265624,-0.0021316999083969466,0.002931087374045802,0.010658499541984735,0,0,0,0,0,0,0
0.16666650772094727,0,287.841983026188,24.827180080348626,-0.02734375,0.453125,9.68359375,28.0625,-6.3125,-43.5625,-0.001953125,-0.021484375,0.001953125,0.01953125,0.01397705078125,0.760009765625,0.6494140625,0.086191259765625,-0.430956298828125,10.189722265624999,-0.017053599267175572,0.00985911207633588,0.007727412167938932,0,0,0,0,0,0,0
0.19999980926513672,0,286.9844650988247,24.836311888182536,0.125,0.453125,9.68359375,27.3125,-8.125,-42.3125,-0.005859375,-0.056640625,0.00390625,0.01953125,0.01397705078125,0.760009765625,0.6494140625,0.0383072265625,-0.45968671875,10.32379755859375,-0.07780704665648856,0.004529862305343512,0.015721286824427482,0,0,0,0,0,0,0
0.23333311080932617,0,287.17851503283214,24.827180080348626,0.0078125,0.453125,9.71875,26.5625,-6.6875,-42.3125,-0.005859375,-0.056640625,0.00390625,0.01995849609375,0.01361083984375,0.76104736328125,0.64825439453125,0.076614453125,-0.842758984375,10.256759912109374,-0.017053599267175572,0.007460949679389314,0.007460949679389314,0,0,0,0,0,0,0
0.2666664123535156,0,287.18166873606697,24.836311888182536,0.35546875,0.4140625,9.72265625,26.5625,-6.6875,-42.3125,0.0,0.0234375,-0.001953125,0.02069091796875,0.0130615234375,0.76275634765625,0.64617919921875,0.028730419921875,-0.5746083984375,10.218452685546874,0.15987749312977098,-0.00319754986259542,0.007460949679389314,0,0,0,0,0,0,0
0.2999997138977051,0,286.608944388562,24.840877787210047,0.39453125,0.4140625,9.71875,27.3125,-7.0625,-43.5625,-0.001953125,0.033203125,0.001953125,0.02069091796875,0.0130615234375,0.76275634765625,0.64617919921875,0.09576806640624999,-0.39264907226562495,10.228029492187499,-0.04103522323664122,0.0053292497709923675,0.010924962030534353,0,0,0,0,0,0,0
0.33333301544189453,0,287.2755470254369,24.831745985895395,0.1640625,0.453125,9.71875,26.25,-8.5,-41.9375,-0.001953125,0.033203125,0.001953125,0.01934814453125,0.01416015625,0.7637939453125,0.64501953125,-0.09576806640624999,-0.47884033203125,10.256759912109374,0.014388974381679392,0.0018652374198473284,0.014921899358778627,0,0,0,0,0,0,0
0.366666316986084,0,287.2755470254369,24.836311888182536,0.203125,0.375,9.71875,26.25,-8.5,-41.9375,0.001953125,0.01171875,0.017578125,0.01959228515625,0.0140380859375,0.76531982421875,0.6431884765625,0.143652099609375,-0.33518823242187495,10.20887587890625,0.032508423603053435,0.0013323124427480919,0.058088822503816806,0,0,0,0,0,0,0
0.39999961853027344,0,287.5603407857786,24.84544368297793,-0.02734375,0.52734375,9.68359375,27.6875,-7.4375,-41.9375,0.001953125,-0.0234375,0.037109375,0.01959228515625,0.0140380859375,0.76531982421875,0.6431884765625,0.15322890625,-0.316034619140625,10.275913525390624,-0.030110261206106874,0.0013323124427480919,0.03943644830534352,0,0,0,0,0,0,0
0.4333329200744629,0,287.084635673101,24.84544368297793,0.125,0.4921875,9.71875,26.9375,-6.375,-43.5625,0.001953125,-0.0234375,0.037109375,0.01910400390625,0.013916015625,0.7686767578125,0.63922119140625,0.076614453125,-0.26815058593749996,10.199299072265624,-0.06261868480916032,0.005862174748091604,0.02771209880916031,0,0,0,0,0,0,0
0.46666622161865234,0,287.4696250624485,24.84544368297793,0.1640625,0.453125,9.68359375,26.9375,-6.375,-43.5625,-0.009765625,-0.078125,0.009765625,0.02008056640625,0.01361083984375,0.76959228515625,0.6380615234375,0.05746083984375,-0.612915625,10.199299072265624,0.04290046065648855,0.004263399816793893,0.013856049404580155,0,0,0,0,0,0,0
0.4999995231628418,0,286.896879599449,24.850009575486183,0.31640625,0.4140625,9.72265625,26.25,-6.6875,-42.375,0.0,0.04296875,-0.001953125,0.02008056640625,0.01361083984375,0.76959228515625,0.6380615234375,0.047884033203124995,-0.239420166015625,10.275913525390624,0.04476569807633588,-0.0005329249770992366,0.011990811984732825,0,0,0,0,0,0,0
0.5333328247070312,0,286.896879599449,24.84544368297793,0.0078125,0.4140625,9.71875,27.3125,-7.375,-42.4375,0.0,0.04296875,-0.001953125,0.0196533203125,0.01397705078125,0.7694091796875,0.6383056640625,0.047884033203124995,-0.201112939453125,10.151415039062499,-0.06714854711450383,0.0010658499541984733,0.02105053659541985,0,0,0,0,0,0,0
0.5666661262512207,0,287.2787064829128,24.850009575486183,-0.02734375,0.453125,9.68359375,27.3125,-7.375,-42.4375,-0.00390625,-0.08984375,0.0078125,0.0205078125,0.01324462890625,0.76922607421875,0.6385498046875,0.105344873046875,-0.622492431640625,10.28549033203125,-0.031442573648854964,0.002931087374045802,0.014388974381679392,0,0,0,0,0,0,0
0.5999994277954102,0,287.5635020930589,24.84544368297793,0.35546875,0.4140625,9.72265625,26.625,-9.5,-43.5625,0.001953125,0.0078125,0.0,0.0205078125,0.01324462890625,0.76922607421875,0.6385498046875,0.028730419921875,-0.622492431640625,10.32379755859375,0.06821439706870229,0.002931087374045802,0.014388974381679392,0,0,0,0,0,0,0
0.6333327293395996,0,287.2755470254369,24.850009575486183,0.35546875,0.4140625,9.72265625,26.5625,-6.0,-42.375,0.001953125,0.0078125,0.0,0.021240234375,0.0126953125,0.76983642578125,0.63775634765625,0.13407529296874998,-0.316034619140625,10.256759912109374,0.05728943503816794,0.003730474839694657,0.008793262122137404,0,0,0,0,0,0,0
0.6666660308837891,0,287.47279602871174,24.84544368297793,0.046875,0.453125,9.6796875,26.5625,-6.0,-42.375,0.0,0.03125,0.0,0.02056884765625,0.01275634765625,0.7720947265625,0.63507080078125,0.086191259765625,-0.38307226562499996,10.218452685546874,-0.014388974381679392,0.008793262122137404,0.018119449221374047,0,0,0,0,0,0,0
0.6999993324279785,0,287.4696250624485,24.850009575486183,0.0078125,0.453125,9.68359375,26.9375,-7.375,-42.375,-0.00390625,-0.0546875,0.00390625,0.02056884765625,0.01275634765625,0.7720947265625,0.63507080078125,0.15322890625,-0.26815058593749996,10.160991845703125,-0.07967228407633588,0.01119142451908397,0.016787136778625956,0,0,0,0,0,0,0
0.733332633972168,0,287.0909546905925,24.854575464734808,0.0078125,0.453125,9.68359375,26.9375,-7.75,-43.25,-0.00390625,-0.0546875,0.00390625,0.0211181640625,0.0123291015625,0.7720947265625,0.63507080078125,0.15322890625,-0.679953271484375,10.218452685546874,-0.11671056998473284,0.003730474839694657,0.018385911709923666,0,0,0,0,0,0,0
0.7666659355163574,0,286.90003915948415,24.850009575486183,0.125,0.453125,9.68359375,26.9375,-7.75,-43.25,-0.009765625,-0.130859375,0.00390625,0.02313232421875,0.0101318359375,0.77227783203125,0.634765625,0.028730419921875,-0.612915625,10.314220751953124,-0.05995405992366413,0.005595712259541985,0.015721286824427482,0,0,0,0,0,0,0
0.7999992370605469,0,286.80300288550836,24.854575464734808,0.35546875,0.453125,9.72265625,26.9375,-6.0,-43.625,0.0,-0.01171875,0.001953125,0.02313232421875,0.0101318359375,0.77227783203125,0.634765625,0.028730419921875,-0.737414111328125,10.237606298828124,0.0639509972519084,0.0018652374198473284,0.009059724610687023,0,0,0,0,0,0,0
0.8333325386047363,0,286.993914803098,24.850009575486183,0.39453125,0.4140625,9.71875,25.875,-6.375,-43.625,0.0,-0.01171875,0.001953125,0.0235595703125,0.009765625,0.77203369140625,0.63507080078125,0.12449848632812499,-0.74699091796875,10.218452685546874,0.11404594509923666,0.0034640123511450386,0.008260337145038169,0,0,0,0,0,0,0
0.8666658401489258,0,286.896879599449,24.850009575486183,0.203125,0.4140625,9.68359375,25.875,-6.375,-43.625,0.0078125,0.1015625,-0.00390625,0.0225830078125,0.01055908203125,0.770263671875,0.63726806640625,0.05746083984375,-0.45968671875,10.218452685546874,0.05116079780152672,0.0061286372366412215,0.00639509972519084,0,0,0,0,0,0,0
0.8999991416931152,0,287.28187364695907,24.850009575486183,0.0078125,0.453125,9.68359375,26.9375,-6.6875,-42.5,-0.001953125,-0.0234375,0.001953125,0.0225830078125,0.01055908203125,0.770263671875,0.63726806640625,0.06703764648437499,-0.316034619140625,10.141838232421874,-0.05009494784732825,0.004263399816793893,0.01279019945038168,0,0,0,0,0,0,0
0.9333324432373047,0,287.66054706738004,24.854575464734808,0.125,0.4140625,9.68359375,26.25,-6.6875,-43.625,-0.001953125,-0.0234375,0.001953125,0.0228271484375,0.01080322265625,0.768310546875,0.63958740234375,0.047884033203124995,-0.622492431640625,10.266336718749999,0.017852986732824427,0.002398162396946565,0.007460949679389314,0,0,0,0,0,0,0
0.9666657447814941,0,286.6120943928867,24.854575464734808,0.31640625,0.453125,9.6796875,26.25,-6.6875,-43.625,-0.00390625,0.017578125,0.0,0.022705078125,0.0103759765625,0.7674560546875,0.640625,0.047884033203124995,-0.373495458984375,10.237606298828124,-0.029044411251908403,0.004529862305343512,0.00959264958778626,0,0,0,0,0,0,0
0.9999990463256836,0,287.3757489137518,24.850009575486183,0.0078125,0.4921875,9.68359375,27.3125,-7.0625,-42.875,-0.00390625,-0.11328125,0.00390625,0.022705078125,0.0103759765625,0.7674560546875,0.640625,0.12449848632812499,-0.6512228515624999,10.199299072265624,-0.08606738380152673,-0.0013323124427480919,0.015721286824427482,0,0,0,0,0,0,0
1.033332347869873,0,287.5666711070964,24.854575464734808,0.23828125,0.453125,9.68359375,26.9375,-7.0625,-42.5,-0.00390625,-0.11328125,0.00390625,0.0238037109375,0.0093994140625,0.76678466796875,0.641357421875,0.1149216796875,-0.5458779785156249,10.266336718749999,-0.05595712259541985,-0.0013323124427480919,0.016787136778625956,0,0,0,0,0,0,0
1.0666656494140625,0,287.3757489137518,24.850009575486183,0.35546875,0.453125,9.6796875,26.9375,-7.0625,-42.5,0.0,-0.064453125,0.0078125,0.02490234375,0.008544921875,0.76641845703125,0.64178466796875,0.047884033203124995,-0.6703764648437499,10.180145458984374,-0.03943644830534352,0.009059724610687023,0.00639509972519084,0,0,0,0,0,0,0
1.099998950958252,0,287.4696250624485,24.84544368297793,0.35546875,0.4140625,9.6796875,25.875,-7.375,-42.875,-0.001953125,0.0703125,-0.00390625,0.02490234375,0.008544921875,0.76641845703125,0.64178466796875,0.05746083984375,-0.6512228515624999,10.20887587890625,0.10738438288549619,-0.006661562213740459,0.013589586916030535,0,0,0,0,0,0,0
1.1333322525024414,0,287.28187364695907,24.854575464734808,0.5078125,0.4140625,9.71875,26.9375,-7.375,-41.6875,-0.001953125,0.0703125,-0.00390625,0.02496337890625,0.008544921875,0.76654052734375,0.64166259765625,0.047884033203124995,-0.507570751953125,10.20887587890625,0.090064321129771,-0.0018652374198473284,0.003730474839694657,0,0,0,0,0,0,0
1.1666655540466309,0,287.28187364695907,24.854575464734808,0.23828125,0.4140625,9.68359375,26.9375,-7.375,-41.6875,0.005859375,0.076171875,-0.0078125,0.0238037109375,0.00958251953125,0.767333984375,0.6407470703125,0.09576806640624999,-0.679953271484375,10.228029492187499,0.03650536093129771,0.00319754986259542,0.00799387465648855,0,0,0,0,0,0,0
1.1999988555908203,0,287.18483014579823,24.850009575486183,0.0859375,0.4140625,9.68359375,26.9375,-7.375,-41.6875,0.001953125,0.0703125,-0.00390625,0.0238037109375,0.00958251953125,0.767333984375,0.6407470703125,0.05746083984375,-0.689530078125,10.218452685546874,0.13616233164885497,-0.0013323124427480919,0.009059724610687023,0,0,0,0,0,0,0
1.2333321571350098,0,287.5666711070964,24.854575464734808,0.35546875,0.453125,9.72265625,26.25,-7.75,-44.4375,0.001953125,0.0703125,-0.00390625,0.0233154296875,0.00994873046875,0.76806640625,0.639892578125,0.086191259765625,-0.51714755859375,10.17056865234375,0.17400000502290078,-0.00639509972519084,0.014921899358778627,0,0,0,0,0,0,0
1.2666654586791992,0,287.3757489137518,24.854575464734808,0.0078125,0.4921875,9.68359375,26.25,-7.75,-44.4375,0.009765625,0.14453125,-0.001953125,0.021240234375,0.01226806640625,0.76873779296875,0.63909912109375,0.181959326171875,0.143652099609375,10.189722265624999,0.012523736961832063,0.010658499541984735,0.014388974381679392,0,0,0,0,0,0,0
1.2999987602233887,0,287.3757489137518,24.854575464734808,-0.06640625,0.4921875,9.6796875,26.9375,-7.0625,-42.0625,0.0,-0.00390625,-0.001953125,0.021240234375,0.01226806640625,0.76873779296875,0.63909912109375,0.047884033203124995,-0.45010991210937495,10.228029492187499,0.0053292497709923675,0.0010658499541984733,0.017320061755725192,0,0,0,0,0,0,0
1.3333320617675781,0,287.0909546905925,24.859141350723803,0.125,0.453125,9.71875,26.9375,-7.75,-42.5625,0.0,-0.00390625,-0.001953125,0.02081298828125,0.01251220703125,0.76971435546875,0.63787841796875,0.0,-0.5746083984375,10.333374365234375,0.04849617291603054,0.005062787282442748,0.020251149129770992,0,0,0,0,0,0,0
1.3666653633117676,0,287.18166873606697,24.854575464734808,0.27734375,0.4140625,9.71875,27.3125,-7.0625,-43.3125,0.0,0.033203125,0.0,0.02001953125,0.01318359375,0.7703857421875,0.6370849609375,0.028730419921875,-0.7661445312499999,10.333374365234375,0.16200919303816794,0.002398162396946565,0.010658499541984735,0,0,0,0,0,0,0
1.399998664855957,0,286.90003915948415,24.859141350723803,0.23828125,0.4140625,9.71875,27.3125,-7.0625,-43.3125,0.001953125,0.091796875,0.001953125,0.02001953125,0.01318359375,0.7703857421875,0.6370849609375,0.1149216796875,0.047884033203124995,10.189722265624999,0.04902909789312977,0.008793262122137404,0.014655436870229008,0,0,0,0,0,0,0
1.4333319664001465,0,286.51821837244194,24.850009575486183,-0.375,0.453125,9.64453125,26.9375,-6.375,-42.5625,0.001953125,0.091796875,0.001953125,0.01806640625,0.0147705078125,0.77093505859375,0.63653564453125,0.028730419921875,-0.33518823242187495,10.13226142578125,-0.19584992908396948,0.0021316999083969466,0.016254211801526718,0,0,0,0,0,0,0
1.466665267944336,0,286.90003915948415,24.854575464734808,-0.02734375,0.4140625,9.68359375,26.9375,-6.375,-42.5625,0.001953125,-0.1953125,-0.001953125,0.02569580078125,0.0079345703125,0.769775390625,0.63775634765625,0.09576806640624999,-0.49799394531249996,10.28549033203125,0.05036141033587787,0.0,0.019984686641221373,0,0,0,0,0,0,0
1.4999985694885254,0,287.3757489137518,24.850009575486183,0.46875,0.453125,9.7578125,25.875,-9.1875,-42.9375,0.0,0.06640625,0.0078125,0.02569580078125,0.0079345703125,0.769775390625,0.63775634765625,0.16280571289062498,-0.354341845703125,10.24718310546875,0.10178867062595422,0.007460949679389314,0.016787136778625956,0,0,0,0,0,0,0
1.5333318710327148,0,287.18799926205554,24.854575464734808,0.23828125,0.453125,9.71875,26.9375,-7.0625,-42.5625,0.0,0.06640625,0.0078125,0.0247802734375,0.00872802734375,0.7698974609375,0.63763427734375,0.13407529296874998,0.13407529296874998,10.237606298828124,-0.07967228407633588,0.005595712259541985,0.015721286824427482,0,0,0,0,0,0,0
1.5666651725769043,0,287.85465106897556,24.854575464734808,0.1640625,0.4921875,9.71875,27.3125,-7.375,-42.9375,-0.00390625,-0.111328125,0.00390625,0.02496337890625,0.00848388671875,0.7701416015625,0.6373291015625,0.028730419921875,-0.699106884765625,10.218452685546874,0.00799387465648855,0.004529862305343512,0.02398162396946565,0,0,0,0,0,0,0
1.602670431137085,1,286.993914803098,24.850009575486183,0.46875,0.4140625,9.71875,27.3125,-7.375,-42.9375,0.005859375,0.029296875,0.015625,0.02569580078125,0.00787353515625,0.77044677734375,0.63690185546875,0.105344873046875,-0.6607996582031249,10.237606298828124,0.1119142451908397,0.002931087374045802,0.031442573648854964,0,0,0,0,0,0,0
1.6360037326812744,1,287.4696250624485,24.86370723345317,0.203125,0.4140625,9.68359375,27.3125,-7.0625,-42.9375,0.005859375,0.029296875,0.015625,0.02569580078125,0.00787353515625,0.77044677734375,0.63690185546875,0.086191259765625,-0.258573779296875,10.199299072265624,0.09033078361832061,0.008793262122137404,0.031176111160305348,0,0,0,0,0,0,0
1.6693370342254639,1,287.3757489137518,24.850009575486183,-0.02734375,0.453125,9.68359375,27.3125,-6.375,-42.5625,0.001953125,0.078125,0.01171875,0.02398681640625,0.0093994140625,0.77099609375,0.6363525390625,0.0,-0.430956298828125,10.160991845703125,0.046630935496183204,0.0034640123511450386,0.02691271134351145,0,0,0,0,0,0,0
1.7026703357696533,1,286.90003915948415,24.850009575486183,0.125,0.453125,9.71875,27.3125,-6.375,-42.5625,-0.001953125,0.021484375,0.017578125,0.02398681640625,0.0093994140625,0.77099609375,0.6363525390625,0.0383072265625,-0.44053310546874996,10.352527978515624,0.05595712259541985,0.0053292497709923675,0.029843798717557254,0,0,0,0,0,0,0
1.7360036373138428,1,287.18483014579823,24.850009575486183,0.23828125,0.453125,9.71875,28.0625,-6.6875,-42.1875,-0.001953125,0.021484375,0.017578125,0.02349853515625,0.00982666015625,0.771240234375,0.635986328125,0.076614453125,-0.45968671875,10.36210478515625,0.09832465827480917,0.003996937328244275,0.017320061755725192,0,0,0,0,0,0,0
1.7693369388580322,1,287.75759672597957,24.854575464734808,-0.02734375,0.453125,9.68359375,26.25,-8.125,-42.9375,0.0,0.076171875,0.005859375,0.02215576171875,0.01092529296875,0.771484375,0.6357421875,0.06703764648437499,-0.36391865234375,10.28549033203125,0.062352222320610697,0.003730474839694657,0.01119142451908397,0,0,0,0,0,0,0
1.8026702404022217,1,287.5666711070964,24.850009575486183,-0.02734375,0.453125,9.68359375,26.25,-8.125,-42.9375,0.0,0.005859375,0.001953125,0.02215576171875,0.01092529296875,0.771484375,0.6357421875,0.16280571289062498,-0.469263525390625,10.24718310546875,0.024514548946564886,0.007460949679389314,0.01279019945038168,0,0,0,0,0,0,0
1.8360035419464111,1,287.3757489137518,24.854575464734808,0.046875,0.4921875,9.6796875,27.6875,-6.375,-42.125,0.0,0.005859375,0.001953125,0.021484375,0.01141357421875,0.7713623046875,0.63592529296875,0.1149216796875,-0.488417138671875,10.180145458984374,-0.0010658499541984733,0.00639509972519084,-0.0010658499541984733,0,0,0,0,0,0,0
1.8693368434906006,1,287.3757489137518,24.84544368297793,0.125,0.4921875,9.71875,27.3125,-7.375,-42.9375,0.0,0.005859375,-0.021484375,0.02142333984375,0.011474609375,0.77117919921875,0.63616943359375,0.086191259765625,-0.22026655273437498,10.218452685546874,0.05275957273282444,0.0013323124427480919,0.015454824335877864,0,0,0,0,0,0,0
1.90267014503479,1,287.0909546905925,24.859141350723803,0.0859375,0.453125,9.68359375,27.3125,-7.375,-42.9375,0.0,-0.015625,0.0,0.02142333984375,0.011474609375,0.77117919921875,0.63616943359375,0.076614453125,-0.12449848632812499,10.237606298828124,-0.0319754986259542,0.002931087374045802,0.0130566619389313,0,0,0,0,0,0,0
1.9360034465789795,1,287.8514724978502,24.854575464734808,-0.18359375,0.453125,9.68359375,27.6875,-7.0625,-41.75,0.0,-0.015625,0.0,0.0208740234375,0.01190185546875,0.77099609375,0.63641357421875,0.009576806640625,-0.373495458984375,10.28549033203125,-0.08926493366412214,0.00319754986259542,0.010658499541984735,0,0,0,0,0,0,0
1.969336748123169,1,287.66054706738004,24.84544368297793,-0.02734375,0.453125,9.68359375,26.625,-8.5,-42.5,-0.001953125,-0.109375,0.001953125,0.02264404296875,0.0103759765625,0.7708740234375,0.636474609375,0.05746083984375,-0.6512228515624999,10.36210478515625,0.05649004757251909,0.00799387465648855,0.040502298259541984,0,0,0,0,0,0,0
2.0026700496673584,1,287.3757489137518,24.850009575486183,0.35546875,0.453125,9.76171875,26.625,-8.5,-42.5,0.0,0.091796875,0.025390625,0.02264404296875,0.0103759765625,0.7708740234375,0.636474609375,0.086191259765625,-0.296881005859375,10.256759912109374,0.14255743137404583,-0.005062787282442748,0.042367535679389313,0,0,0,0,0,0,0
2.036003351211548,1,287.0877913286256,24.850009575486183,0.23828125,0.4921875,9.71875,27.6875,-7.0625,-41.75,0.0,0.091796875,0.025390625,0.02166748046875,0.01123046875,0.771240234375,0.6361083984375,0.0,-0.3447650390625,10.180145458984374,0.024781011435114506,0.009326187099236643,0.016254211801526718,0,0,0,0,0,0,0
2.0693366527557373,1,287.37258370193626,24.854575464734808,-0.02734375,0.4140625,9.68359375,27.3125,-7.75,-43.0,0.00390625,0.017578125,0.00390625,0.02056884765625,0.01220703125,0.77142333984375,0.6358642578125,0.076614453125,-0.12449848632812499,10.28549033203125,-0.0159877493129771,-0.000799387465648855,0.015454824335877864,0,0,0,0,0,0,0
2.1026699542999268,1,287.18483014579823,24.84544368297793,0.0078125,0.4140625,9.71875,27.3125,-7.75,-43.0,0.001953125,-0.03125,0.001953125,0.02056884765625,0.01220703125,0.77142333984375,0.6358642578125,0.076614453125,-0.47884033203125,10.24718310546875,0.016520674290076337,0.0034640123511450386,0.023182236503816796,0,0,0,0,0,0,0
2.136003255844116,1,287.2787064829128,24.850009575486183,0.23828125,0.453125,9.71875,27.6875,-7.4375,-42.625,0.001953125,-0.03125,0.001953125,0.02093505859375,0.0118408203125,0.771484375,0.63580322265625,0.0383072265625,-0.354341845703125,10.20887587890625,0.0959264958778626,0.007460949679389314,0.017053599267175572,0,0,0,0,0,0,0
2.1693365573883057,1,287.18166873606697,24.850009575486183,-0.02734375,0.453125,9.71875,27.3125,-7.0625,-42.625,0.001953125,0.0703125,0.0078125,0.02001953125,0.01263427734375,0.77166748046875,0.63555908203125,0.09576806640624999,-0.201112939453125,10.266336718749999,0.017586524244274808,-0.0034640123511450386,0.011724349496183208,0,0,0,0,0,0,0
2.202669858932495,1,287.2787064829128,24.840877787210047,-0.06640625,0.453125,9.6796875,27.3125,-7.0625,-42.625,0.00390625,-0.00390625,0.001953125,0.02001953125,0.01263427734375,0.77166748046875,0.63555908203125,0.06703764648437499,-0.47884033203125,10.199299072265624,0.03810413586259542,0.0053292497709923675,0.02131699908396947,0,0,0,0,0,0,0
2.2360031604766846,1,286.9907571953083,24.840877787210047,0.0859375,0.453125,9.71875,27.6875,-7.0625,-43.0,0.00390625,-0.00390625,0.001953125,0.0196533203125,0.012939453125,0.771728515625,0.635498046875,0.047884033203124995,-0.316034619140625,10.199299072265624,0.05702297254961833,0.0010658499541984733,0.01918529917557252,0,0,0,0,0,0,0
2.269336462020874,1,287.2787064829128,24.836311888182536,-0.02734375,0.4140625,9.71875,27.3125,-7.0625,-41.8125,0.001953125,0.044921875,0.009765625,0.0189208984375,0.0135498046875,0.77191162109375,0.63525390625,0.05746083984375,-0.21068974609375,10.256759912109374,0.02424808645801527,0.0061286372366412215,0.017053599267175572,0,0,0,0,0,0,0
2.3026697635650635,1,287.94534915162967,24.84544368297793,-0.06640625,0.453125,9.6796875,27.3125,-7.0625,-41.8125,0.0,0.005859375,0.001953125,0.0189208984375,0.0135498046875,0.77191162109375,0.63525390625,0.05746083984375,-0.21068974609375,10.295067138671874,0.017586524244274808,0.003730474839694657,0.016254211801526718,0,0,0,0,0,0,0
2.336003065109253,1,287.6573800055929,24.850009575486183,0.0078125,0.453125,9.71875,28.0625,-7.0625,-42.625,0.0,0.005859375,0.001953125,0.01861572265625,0.01385498046875,0.77203369140625,0.63519287109375,0.0383072265625,-0.316034619140625,10.342951171874999,0.03597243595419848,0.004263399816793893,-0.00159877493129771,0,0,0,0,0,0,0
2.3693363666534424,1,287.66054706738004,24.84544368297793,0.046875,0.453125,9.72265625,28.0625,-6.375,-43.0,-0.001953125,0.01953125,-0.001953125,0.01849365234375,0.013916015625,0.77197265625,0.63519287109375,0.06703764648437499,-0.22026655273437498,10.237606298828124,-0.011990811984732825,-0.0026646248854961837,0.00985911207633588,0,0,0,0,0,0,0
2.402669668197632,1,287.0877913286256,24.850009575486183,-0.10546875,0.453125,9.6796875,28.0625,-6.375,-43.0,-0.001953125,-0.041015625,0.0,0.01849365234375,0.013916015625,0.77197265625,0.63519287109375,0.06703764648437499,-0.105344873046875,10.160991845703125,-0.0639509972519084,0.005595712259541985,0.007727412167938932,0,0,0,0,0,0,0
2.4360029697418213,1,287.94534915162967,24.840877787210047,-0.14453125,0.453125,9.68359375,28.0625,-6.0,-42.25,-0.001953125,-0.041015625,0.0,0.0189208984375,0.0135498046875,0.77197265625,0.63519287109375,0.13407529296874998,-0.469263525390625,10.275913525390624,-0.017586524244274808,0.00985911207633588,0.021849924061068705,0,0,0,0,0,0,0
2.4693362712860107,1,287.66054706738004,24.840877787210047,0.203125,0.4921875,9.71875,28.4375,-6.0,-43.0,0.0,-0.052734375,0.00390625,0.02020263671875,0.0125732421875,0.77203369140625,0.6351318359375,0.028730419921875,-0.28730419921875,10.228029492187499,0.00799387465648855,0.00985911207633588,0.010658499541984735,0,0,0,0,0,0,0
2.5026695728302,1,287.2787064829128,24.840877787210047,0.0078125,0.453125,9.71875,28.4375,-6.0,-43.0,0.0,-0.017578125,0.00390625,0.02020263671875,0.0125732421875,0.77203369140625,0.6351318359375,0.047884033203124995,-0.469263525390625,10.342951171874999,0.03677182341984733,0.002398162396946565,0.028245023786259545,0,0,0,0,0,0,0
2.5360028743743896,1,287.4696250624485,24.840877787210047,0.125,0.4140625,9.71875,27.6875,-7.0625,-43.375,0.0,-0.017578125,0.00390625,0.02032470703125,0.01251220703125,0.7720947265625,0.63507080078125,-0.0383072265625,-0.44053310546874996,10.304643945312499,0.06848085955725192,-0.0021316999083969466,0.033041348580152674,0,0,0,0,0,0,0
2.569336175918579,1,287.66054706738004,24.854575464734808,0.0078125,0.4140625,9.68359375,28.0625,-5.625,-41.4375,-0.001953125,0.052734375,0.015625,0.0194091796875,0.01324462890625,0.7723388671875,0.634765625,0.047884033203124995,-0.411802685546875,10.218452685546874,0.0652833096946565,0.011990811984732825,0.013323124427480917,0,0,0,0,0,0,0
2.6026694774627686,1,287.6573800055929,24.84544368297793,0.0859375,0.453125,9.71875,28.0625,-5.625,-41.4375,0.001953125,0.068359375,0.0,0.0194091796875,0.01324462890625,0.7723388671875,0.634765625,0.076614453125,-0.3064578125,10.266336718749999,0.08553445882442749,0.006928024702290077,0.013856049404580155,0,0,0,0,0,0,0
2.636002779006958,1,287.37258370193626,24.84544368297793,-0.02734375,0.453125,9.71875,28.4375,-7.4375,-43.0625,0.001953125,0.068359375,0.0,0.01824951171875,0.01422119140625,0.77239990234375,0.634765625,0.09576806640624999,-0.13407529296874998,10.180145458984374,0.034640123511450384,-0.0010658499541984733,0.010392037053435116,0,0,0,0,0,0,0
2.6693360805511475,1,287.66054706738004,24.850009575486183,-0.10546875,0.453125,9.72265625,28.0625,-7.4375,-42.25,0.0,0.013671875,-0.001953125,0.01739501953125,0.01495361328125,0.7723388671875,0.634765625,0.09576806640624999,-0.16280571289062498,10.275913525390624,0.015721286824427482,0.009326187099236643,0.014388974381679392,0,0,0,0,0,0,0
2.702669382095337,1,287.66054706738004,24.840877787210047,-0.06640625,0.453125,9.6796875,28.0625,-7.4375,-42.25,-0.00390625,-0.0078125,-0.001953125,0.01739501953125,0.01495361328125,0.7723388671875,0.634765625,0.06703764648437499,-0.22026655273437498,10.304643945312499,0.011990811984732825,0.007194487190839696,0.00479632479389313,0,0,0,0,0,0,0
2.7360026836395264,1,287.5635020930589,24.854575464734808,-0.06640625,0.453125,9.72265625,28.0625,-7.4375,-42.25,-0.00390625,-0.0078125,-0.001953125,0.0172119140625,0.01507568359375,0.77227783203125,0.63482666015625,0.1149216796875,-0.229843359375,10.32379755859375,0.002398162396946565,-0.005862174748091604,0.014921899358778627,0,0,0,0,0,0,0
2.769335985183716,1,287.18483014579823,24.840877787210047,-0.06640625,0.453125,9.72265625,28.8125,-7.4375,-43.8125,-0.001953125,-0.01953125,0.0,0.017333984375,0.01495361328125,0.77227783203125,0.6348876953125,0.06703764648437499,-0.3064578125,10.189722265624999,-0.00959264958778626,-0.0021316999083969466,0.013589586916030535,0,0,0,0,0,0,0
2.8026692867279053,1,287.5666711070964,24.850009575486183,-0.02734375,0.453125,9.71875,28.8125,-7.4375,-43.8125,-0.001953125,-0.046875,0.0,0.017333984375,0.01495361328125,0.77227783203125,0.6348876953125,0.076614453125,-0.296881005859375,10.237606298828124,-0.033307811068702294,0.00159877493129771,0.015721286824427482,0,0,0,0,0,0,0
2.8360025882720947,1,287.9485257705391,24.84544368297793,-0.02734375,0.453125,9.71875,28.4375,-6.6875,-41.4375,-0.001953125,-0.046875,0.0,0.017822265625,0.0145263671875,0.77215576171875,0.635009765625,0.05746083984375,-0.39264907226562495,10.228029492187499,0.013856049404580155,0.014655436870229008,0.007727412167938932,0,0,0,0,0,0,0
2.869335889816284,1,287.3789218322163,24.850009575486183,0.0078125,0.4140625,9.71875,27.6875,-7.75,-43.0625,-0.001953125,-0.005859375,0.0,0.0181884765625,0.0142822265625,0.77215576171875,0.63507080078125,0.0383072265625,-0.3064578125,10.333374365234375,0.029310873740458016,0.009326187099236643,0.003996937328244275,0,0,0,0,0,0,0
2.9026691913604736,1,288.32720991293536,24.854575464734808,0.0078125,0.4140625,9.71875,27.6875,-7.75,-43.0625,-0.001953125,0.01953125,-0.001953125,0.0181884765625,0.0142822265625,0.77215576171875,0.63507080078125,0.009576806640625,-0.229843359375,10.24718310546875,0.030376723694656493,0.010658499541984735,0.007460949679389314,0,0,0,0,0,0,0
2.936002492904663,1,288.04240135400164,24.854575464734808,-0.02734375,0.453125,9.71875,27.6875,-7.0625,-42.6875,-0.001953125,0.01953125,-0.001953125,0.0177001953125,0.0146484375,0.7720947265625,0.63507080078125,0.076614453125,-0.26815058593749996,10.275913525390624,0.014921899358778627,0.009326187099236643,0.008260337145038169,0,0,0,0,0,0,0
2.9693357944488525,1,287.2787064829128,24.854575464734808,-0.02734375,0.453125,9.71875,28.0625,-6.6875,-42.6875,0.001953125,0.00390625,0.001953125,0.01751708984375,0.014892578125,0.77203369140625,0.6351318359375,0.086191259765625,-0.201112939453125,10.17056865234375,0.003730474839694657,0.011724349496183208,0.008526799633587786,0,0,0,0,0,0,0
3.002669095993042,1,288.13627781937305,24.854575464734808,-0.02734375,0.453125,9.68359375,28.0625,-6.6875,-42.6875,0.0,-0.009765625,0.0,0.01751708984375,0.014892578125,0.77203369140625,0.6351318359375,0.0383072265625,-0.3447650390625,10.275913525390624,0.016787136778625956,0.00985911207633588,0.01279019945038168,0,0,0,0,0,0,0
3.0360023975372314,1,287.47279602871174,24.854575464734808,0.0078125,0.453125,9.71875,28.0625,-6.375,-43.4375,0.0,-0.009765625,0.0,0.01751708984375,0.014892578125,0.77197265625,0.63519287109375,0.12449848632812499,-0.28730419921875,10.237606298828124,0.04290046065648855,0.00799387465648855,0.017852986732824427,0,0,0,0,0,0,0
3.069335699081421,1,288.04240135400164,24.859141350723803,0.0078125,0.453125,9.71875,28.8125,-7.8125,-42.625,0.0,0.029296875,0.001953125,0.01708984375,0.0152587890625,0.77197265625,0.63525390625,0.0383072265625,-0.258573779296875,10.304643945312499,0.02691271134351145,0.008793262122137404,0.0130566619389313,0,0,0,0,0,0,0
3.1026690006256104,1,287.5666711070964,24.84544368297793,-0.06640625,0.453125,9.72265625,28.8125,-7.8125,-42.625,-0.00390625,0.001953125,-0.001953125,0.01708984375,0.0152587890625,0.77197265625,0.63525390625,0.009576806640625,-0.239420166015625,10.275913525390624,0.024781011435114506,0.007727412167938932,0.01119142451908397,0,0,0,0,0,0,0
3.1360023021698,1,287.47279602871174,24.854575464734808,0.0078125,0.453125,9.71875,28.8125,-6.0,-41.9375,-0.00390625,0.001953125,-0.001953125,0.0166015625,0.015625,0.77191162109375,0.63531494140625,0.0383072265625,-0.26815058593749996,10.218452685546874,0.05169372277862596,0.002398162396946565,0.011990811984732825,0,0,0,0,0,0,0
3.1693356037139893,1,287.85465106897556,24.84544368297793,0.0078125,0.453125,9.71875,27.6875,-7.0625,-43.0625,0.0,0.04296875,0.001953125,0.0159912109375,0.01611328125,0.77191162109375,0.63531494140625,0.09576806640624999,-0.21068974609375,10.160991845703125,0.029044411251908403,0.008526799633587786,0.015188361847328247,0,0,0,0,0,0,0
3.2026689052581787,1,287.3757489137518,24.850009575486183,-0.14453125,0.453125,9.71875,27.6875,-7.0625,-43.0625,0.0,0.0,0.0,0.0159912109375,0.01611328125,0.77191162109375,0.63531494140625,0.06703764648437499,-0.229843359375,10.256759912109374,0.007460949679389314,-0.0002664624885496183,0.006928024702290077,0,0,0,0,0,0,0
3.236002206802368,1,287.8514724978502,24.850009575486183,-0.10546875,0.453125,9.72265625,27.6875,-6.6875,-42.3125,0.0,0.0,0.0,0.01568603515625,0.01641845703125,0.7718505859375,0.6353759765625,0.05746083984375,-0.24899697265624998,10.228029492187499,-0.029577336229007635,0.00159877493129771,0.009326187099236643,0,0,0,0,0,0,0
3.2693355083465576,1,287.75759672597957,24.850009575486183,-0.10546875,0.453125,9.72265625,28.8125,-7.8125,-41.8125,0.001953125,-0.0390625,0.001953125,0.01617431640625,0.01605224609375,0.77178955078125,0.635498046875,0.0383072265625,-0.32561142578124996,10.237606298828124,-0.02211638654961832,0.0061286372366412215,0.012523736961832063,0,0,0,0,0,0,0
3.302668809890747,1,287.2787064829128,24.84544368297793,0.0078125,0.453125,9.71875,28.8125,-7.8125,-41.8125,-0.001953125,-0.048828125,-0.001953125,0.01617431640625,0.01605224609375,0.77178955078125,0.635498046875,0.028730419921875,-0.258573779296875,10.24718310546875,-0.032508423603053435,-0.0021316999083969466,0.020251149129770992,0,0,0,0,0,0,0
3.3360021114349365,1,287.47279602871174,24.84544368297793,-0.02734375,0.453125,9.71875,28.0625,-5.625,-42.3125,-0.001953125,-0.048828125,-0.001953125,0.01690673828125,0.015380859375,0.7716064453125,0.63568115234375,0.105344873046875,-0.33518823242187495,10.24718310546875,-0.010392037053435116,0.0005329249770992366,0.013323124427480917,0,0,0,0,0,0,0
3.369335412979126,1,288.04240135400164,24.840877787210047,0.0078125,0.453125,9.71875,28.0625,-5.625,-42.3125,0.001953125,-0.03125,0.001953125,0.0174560546875,0.01495361328125,0.77142333984375,0.63592529296875,0.009576806640625,-0.3064578125,10.266336718749999,-0.010658499541984735,0.0018652374198473284,0.012523736961832063,0,0,0,0,0,0,0
3.4026687145233154,1,287.75442390957744,24.850009575486183,0.046875,0.453125,9.6796875,28.0625,-5.625,-42.3125,-0.001953125,-0.03515625,-0.001953125,0.0174560546875,0.01495361328125,0.77142333984375,0.63592529296875,-0.009576806640625,-0.354341845703125,10.237606298828124,-0.0005329249770992366,-0.0013323124427480919,0.014655436870229008,0,0,0,0,0,0,0
3.436002016067505,1,287.8514724978502,24.850009575486183,0.203125,0.4140625,9.71875,28.4375,-6.0,-43.4375,-0.001953125,-0.03515625,-0.001953125,0.0177001953125,0.01470947265625,0.7711181640625,0.63623046875,0.047884033203124995,-0.4213794921875,10.28549033203125,0.07674119670229008,0.006661562213740459,0.013323124427480917,0,0,0,0,0,0,0
3.4693353176116943,1,288.2301551666582,24.84544368297793,0.046875,0.453125,9.72265625,27.6875,-7.4375,-41.875,0.0,0.06640625,-0.001953125,0.01678466796875,0.01556396484375,0.77081298828125,0.63665771484375,0.047884033203124995,-0.229843359375,10.24718310546875,0.06128637236641222,0.00639509972519084,0.010125574564885496,0,0,0,0,0,0,0
3.502668619155884,1,287.75759672597957,24.840877787210047,-0.02734375,0.453125,9.68359375,27.6875,-7.4375,-41.875,0.0,0.046875,0.001953125,0.01678466796875,0.01556396484375,0.77081298828125,0.63665771484375,0.143652099609375,-0.28730419921875,10.237606298828124,0.07487595928244276,0.003730474839694657,0.01279019945038168,0,0,0,0,0,0,0
3.5360019207000732,1,287.5666711070964,24.850009575486183,0.0078125,0.453125,9.71875,28.4375,-6.0,-43.0625,0.0,0.046875,0.001953125,0.015625,0.01654052734375,0.77044677734375,0.6370849609375,0.13407529296874998,-0.181959326171875,10.228029492187499,0.0842021463816794,0.010125574564885496,0.010392037053435116,0,0,0,0,0,0,0
3.5693352222442627,1,287.5666711070964,24.854575464734808,-0.10546875,0.453125,9.72265625,28.4375,-6.375,-43.0625,0.001953125,0.068359375,-0.001953125,0.01422119140625,0.0177001953125,0.77008056640625,0.6375732421875,0.028730419921875,-0.39264907226562495,10.24718310546875,0.09566003338931298,0.0,0.014921899358778627,0,0,0,0,0,0,0
3.602668523788452,1,287.9485257705391,24.84544368297793,-0.14453125,0.4921875,9.68359375,28.4375,-6.375,-43.0625,0.0,0.029296875,-0.001953125,0.01422119140625,0.0177001953125,0.77008056640625,0.6375732421875,0.09576806640624999,-0.105344873046875,10.266336718749999,0.023182236503816796,0.003996937328244275,0.02238284903816794,0,0,0,0,0,0,0
3.6360018253326416,1,288.5181454324643,24.84544368297793,-0.18359375,0.453125,9.71875,28.0625,-7.4375,-42.3125,0.0,0.029296875,-0.001953125,0.01312255859375,0.0186767578125,0.76953125,0.63818359375,0.0383072265625,-0.296881005859375,10.314220751953124,-0.002398162396946565,0.006928024702290077,0.014921899358778627,0,0,0,0,0,0,0
3.669335126876831,1,287.8514724978502,24.840877787210047,-0.10546875,0.453125,9.72265625,28.8125,-5.6875,-43.875,0.001953125,-0.02734375,0.0,0.0133056640625,0.01861572265625,0.76910400390625,0.63873291015625,0.01915361328125,-0.22026655273437498,10.266336718749999,-0.014122511893129772,0.003730474839694657,0.013856049404580155,0,0,0,0,0,0,0
3.7026684284210205,1,287.5666711070964,24.836311888182536,-0.06640625,0.453125,9.72265625,28.8125,-5.6875,-43.875,0.00390625,-0.015625,0.0,0.0133056640625,0.01861572265625,0.76910400390625,0.63873291015625,0.105344873046875,-0.316034619140625,10.314220751953124,0.008793262122137404,0.0002664624885496183,0.010658499541984735,0,0,0,0,0,0,0
3.73600172996521,1,287.8514724978502,24.850009575486183,-0.06640625,0.4140625,9.72265625,28.8125,-6.6875,-41.5,0.00390625,-0.015625,0.0,0.01361083984375,0.01849365234375,0.7686767578125,0.6392822265625,0.086191259765625,-0.24899697265624998,10.266336718749999,0.008260337145038169,0.00479632479389313,0.00479632479389313,0,0,0,0,0,0,0
3.7693350315093994,1,287.2787064829128,24.840877787210047,0.046875,0.453125,9.72265625,27.6875,-7.0625,-43.125,-0.001953125,-0.005859375,-0.001953125,0.01361083984375,0.0184326171875,0.768310546875,0.63970947265625,0.15322890625,-0.33518823242187495,10.28549033203125,0.05675651006106871,0.0026646248854961837,0.01918529917557252,0,0,0,0,0,0,0
3.802668333053589,1,287.4696250624485,24.840877787210047,-0.10546875,0.453125,9.6796875,27.6875,-7.0625,-43.125,0.0,0.041015625,0.0,0.01361083984375,0.0184326171875,0.768310546875,0.63970947265625,0.06703764648437499,-0.181959326171875,10.304643945312499,0.04156814821374046,0.005595712259541985,0.01971822415267176,0,0,0,0,0,0,0
3.8360016345977783,1,287.94534915162967,24.831745985895395,-0.10546875,0.453125,9.72265625,29.1875,-7.0625,-43.5,0.0,0.041015625,0.0,0.0128173828125,0.01910400390625,0.7679443359375,0.64007568359375,0.0383072265625,-0.076614453125,10.36210478515625,0.028245023786259545,0.0018652374198473284,0.00959264958778626,0,0,0,0,0,0,0
3.8693349361419678,1,287.75442390957744,24.84544368297793,-0.14453125,0.453125,9.71875,29.5625,-7.8125,-41.5,-0.001953125,0.01953125,0.0,0.01226806640625,0.01959228515625,0.76751708984375,0.64056396484375,0.076614453125,-0.26815058593749996,10.304643945312499,0.02771209880916031,0.00159877493129771,0.021583461572519086,0,0,0,0,0,0,0
3.9026682376861572,1,287.75759672597957,24.84544368297793,-0.14453125,0.453125,9.71875,29.5625,-7.8125,-41.5,-0.001953125,-0.015625,-0.005859375,0.01226806640625,0.01959228515625,0.76751708984375,0.64056396484375,0.076614453125,-0.19153613281249998,10.275913525390624,-0.0010658499541984733,0.0018652374198473284,0.006661562213740459,0,0,0,0,0,0,0
3.9360015392303467,1,288.0392266873328,24.854575464734808,0.046875,0.453125,9.72265625,27.6875,-6.6875,-42.6875,-0.001953125,-0.015625,-0.005859375,0.0120849609375,0.01971435546875,0.76727294921875,0.640869140625,0.09576806640624999,-0.076614453125,10.189722265624999,0.04103522323664122,0.003996937328244275,0.013856049404580155,0,0,0,0,0,0,0
3.969334840774536,1,287.5635020930589,24.850009575486183,-0.10546875,0.453125,9.72265625,27.6875,-7.0625,-42.6875,-0.00390625,0.017578125,0.0,0.01153564453125,0.02020263671875,0.76702880859375,0.6412353515625,0.09576806640624999,-0.009576806640625,10.20887587890625,0.033840736045801526,0.003730474839694657,0.0130566619389313,0,0,0,0,0,0,0
4.002668142318726,1,288.233333635977,24.850009575486183,-0.21875,0.4140625,9.68359375,27.6875,-7.0625,-42.6875,0.0,-0.021484375,0.0,0.01153564453125,0.02020263671875,0.76702880859375,0.6412353515625,0.15322890625,-0.28730419921875,10.32379755859375,0.012257274473282443,-0.0010658499541984733,0.0130566619389313,0,0,0,0,0,0,0
4.036001443862915,1,287.5666711070964,24.84544368297793,-0.10546875,0.453125,9.72265625,28.8125,-6.375,-42.3125,0.0,-0.021484375,0.0,0.01141357421875,0.02032470703125,0.7667236328125,0.64154052734375,0.06703764648437499,-0.32561142578124996,10.333374365234375,0.01945176166412214,-0.0026646248854961837,0.01918529917557252,0,0,0,0,0,0,0
4.0693347454071045,1,288.233333635977,24.840877787210047,-0.06640625,0.453125,9.72265625,28.4375,-7.4375,-43.125,-0.001953125,0.00390625,0.0,0.01129150390625,0.0203857421875,0.76654052734375,0.64178466796875,0.13407529296874998,-0.181959326171875,10.342951171874999,0.05675651006106871,0.0018652374198473284,0.013856049404580155,0,0,0,0,0,0,0
4.102668046951294,1,288.1394582409225,24.840877787210047,-0.06640625,0.453125,9.72265625,28.4375,-7.4375,-43.125,-0.001953125,0.046875,0.0,0.01129150390625,0.0203857421875,0.76654052734375,0.64178466796875,0.105344873046875,-0.143652099609375,10.160991845703125,0.042367535679389313,-0.0002664624885496183,0.009326187099236643,0,0,0,0,0,0,0
4.136001348495483,1,287.66054706738004,24.84544368297793,-0.18359375,0.453125,9.68359375,27.6875,-6.0,-41.5,-0.001953125,0.046875,0.0,0.01055908203125,0.02099609375,0.766357421875,0.64202880859375,0.1149216796875,0.028730419921875,10.17056865234375,-0.00159877493129771,0.0026646248854961837,0.00985911207633588,0,0,0,0,0,0,0
4.169334650039673,1,287.9485257705391,24.840877787210047,-0.2578125,0.453125,9.68359375,28.0625,-7.4375,-41.875,-0.00390625,-0.017578125,-0.001953125,0.01031494140625,0.02117919921875,0.76617431640625,0.6422119140625,0.076614453125,-0.16280571289062498,10.32379755859375,-0.034906586,-0.0021316999083969466,0.00985911207633588,0,0,0,0,0,0,0
4.202667951583862,1,288.04240135400164,24.850009575486183,-0.21875,0.453125,9.68359375,28.0625,-7.4375,-41.875,0.0,-0.041015625,-0.001953125,0.01031494140625,0.02117919921875,0.76617431640625,0.6422119140625,0.028730419921875,-0.22026655273437498,10.256759912109374,-0.009326187099236643,0.002931087374045802,0.012257274473282443,0,0,0,0,0,0,0
4.236001253128052,1,287.75442390957744,24.850009575486183,-0.10546875,0.453125,9.72265625,28.4375,-6.0,-42.3125,0.0,-0.041015625,-0.001953125,0.01104736328125,0.0206298828125,0.7659912109375,0.64239501953125,0.0383072265625,-0.229843359375,10.333374365234375,-0.018119449221374047,0.004263399816793893,0.014388974381679392,0,0,0,0,0,0,0
4.269334554672241,1,287.4696250624485,24.840877787210047,-0.02734375,0.453125,9.71875,28.0625,-7.75,-42.375,0.001953125,-0.025390625,-0.001953125,0.01153564453125,0.02020263671875,0.765869140625,0.642578125,0.1149216796875,-0.28730419921875,10.304643945312499,0.015188361847328247,-0.0021316999083969466,0.00799387465648855,0,0,0,0,0,0,0
4.302667856216431,1,288.04240135400164,24.850009575486183,-0.02734375,0.453125,9.71875,28.0625,-7.75,-42.375,-0.001953125,0.01953125,-0.001953125,0.01153564453125,0.02020263671875,0.765869140625,0.642578125,0.0383072265625,-0.086191259765625,10.237606298828124,0.029577336229007635,0.007460949679389314,0.012257274473282443,0,0,0,0,0,0,0
4.33600115776062,1,287.3757489137518,24.84544368297793,-0.18359375,0.453125,9.68359375,27.6875,-6.6875,-41.875,-0.001953125,0.01953125,-0.001953125,0.0113525390625,0.0203857421875,0.76580810546875,0.64263916015625,0.09576806640624999,-0.373495458984375,10.189722265624999,0.031442573648854964,0.005862174748091604,0.006661562213740459,0,0,0,0,0,0,0
4.36933445930481,1,287.75442390957744,24.84544368297793,0.046875,0.453125,9.72265625,28.8125,-7.8125,-41.875,0.001953125,0.021484375,-0.001953125,0.0111083984375,0.0206298828125,0.7657470703125,0.64276123046875,0.009576806640625,0.009576806640625,10.32379755859375,0.09965697071755726,-0.011457887007633588,-0.006661562213740459,0,0,0,0,0,0,0
4.402667760848999,1,288.3303941372725,24.850009575486183,-0.18359375,0.4140625,9.71875,28.8125,-7.8125,-41.875,0.013671875,0.03515625,-0.021484375,0.0111083984375,0.0206298828125,0.7657470703125,0.64276123046875,0.06703764648437499,-0.239420166015625,10.304643945312499,0.04343338563358779,-0.015454824335877864,-0.017852986732824427,0,0,0,0,0,0,0
4.4360010623931885,1,288.13627781937305,24.84544368297793,-0.18359375,0.453125,9.71875,28.8125,-6.375,-41.5,0.013671875,0.03515625,-0.021484375,0.01007080078125,0.021728515625,0.765380859375,0.64312744140625,0.047884033203124995,-0.06703764648437499,10.314220751953124,-0.02744563632061069,-0.028777948763358784,-0.03597243595419848,0,0,0,0,0,0,0
4.469334363937378,1,287.75759672597957,24.840877787210047,-0.3359375,0.453125,9.68359375,28.8125,-7.0625,-41.875,0.0234375,-0.037109375,-0.05078125,0.01055908203125,0.02197265625,0.7646484375,0.64398193359375,0.0383072265625,-0.28730419921875,10.295067138671874,-0.0711454844427481,-0.014122511893129772,-0.03970291079389313,0,0,0,0,0,0,0
4.502667665481567,1,287.75759672597957,24.859141350723803,-0.10546875,0.4140625,9.6796875,28.8125,-7.0625,-41.875,0.01953125,-0.076171875,-0.052734375,0.01055908203125,0.02197265625,0.7646484375,0.64398193359375,-0.01915361328125,-0.13407529296874998,10.36210478515625,-0.05569066010687024,-0.023182236503816796,-0.06821439706870229,0,0,0,0,0,0,0
4.536000967025757,1,288.3303941372725,24.850009575486183,-0.06640625,0.3359375,9.83984375,28.8125,-6.6875,-42.375,0.01953125,-0.076171875,-0.052734375,0.01251220703125,0.0211181640625,0.76373291015625,0.64501953125,-0.258573779296875,-0.01915361328125,10.66856259765625,-0.05249311024427481,-0.35306279732824436,-0.02131699908396947,0,0,0,0,0,0,0
4.569334268569946,1,288.42426934391887,24.854575464734808,-0.21875,-0.046875,10.1796875,28.0625,-9.25,-42.375,0.345703125,-0.076171875,-0.03125,0.01715087890625,0.02392578125,0.76263427734375,0.64617919921875,-0.201112939453125,-0.354341845703125,10.74517705078125,-0.04156814821374046,-0.5470474889923664,0.016254211801526718,0,0,0,0,0,0,0
4.602667570114136,1,287.66372183600305,24.84544368297793,0.125,0.3359375,10.0625,28.0625,-9.25,-42.375,0.66015625,0.23046875,0.046875,0.01715087890625,0.02392578125,0.76263427734375,0.64617919921875,0.45010991210937495,-0.8810662109374999,11.03248125,0.0959264958778626,-0.8414885388396948,0.06368453476335878,0,0,0,0,0,0,0
4.636000871658325,1,287.75759672597957,24.854575464734808,-0.18359375,0.56640625,10.10546875,28.0625,-7.4375,-41.125,0.66015625,0.23046875,0.046875,0.02508544921875,0.03607177734375,0.76263427734375,0.6453857421875,0.565031591796875,-0.373495458984375,10.295067138671874,0.0959264958778626,-0.8023185530229009,0.01971822415267176,0,0,0,0,0,0,0
4.669334173202515,1,287.9485257705391,24.84544368297793,-0.10546875,1.1796875,9.71875,27.75,-11.375,-41.9375,0.80859375,0.056640625,0.0,0.03662109375,0.0528564453125,0.76239013671875,0.6439208984375,1.01514150390625,-0.36391865234375,10.103531005859374,0.1044532955114504,-0.8763951248396947,-0.03677182341984733,0,0,0,0,0,0,0
4.702667474746704,1,287.8514724978502,24.854575464734808,-0.02734375,1.83203125,9.57421875,27.75,-11.375,-41.9375,0.7578125,0.109375,-0.046875,0.03662109375,0.0528564453125,0.76239013671875,0.6439208984375,0.9864110839843749,0.01915361328125,10.47702646484375,0.14282389386259542,-0.790327741038168,-0.02105053659541985,0,0,0,0,0,0,0
4.7360007762908936,1,288.3303941372725,24.850009575486183,-0.21875,1.6796875,9.640625,28.875,-11.0,-41.125,0.7578125,0.109375,-0.046875,0.04833984375,0.06982421875,0.7606201171875,0.64361572265625,1.62805712890625,-0.296881005859375,9.854534033203125,0.15907810566412217,-0.7964563782748092,-0.018652374198473286,0,0,0,0,0,0,0
4.769334077835083,1,288.04240135400164,24.84544368297793,-0.18359375,2.25390625,9.2578125,28.5,-14.1875,-40.3125,0.771484375,0.111328125,-0.05859375,0.0587158203125,0.0867919921875,0.7587890625,0.642822265625,1.905784521484375,-0.1149216796875,9.557653027343749,0.1220398197557252,-0.5896814871603054,-0.10685145790839697,0,0,0,0,0,0,0
4.8026673793792725,1,287.85465106897556,24.84544368297793,-0.2578125,2.17578125,9.296875,28.5,-14.1875,-40.3125,0.53515625,0.064453125,-0.115234375,0.0587158203125,0.0867919921875,0.7587890625,0.642822265625,2.212242333984375,0.411802685546875,10.304643945312499,0.06208575983206107,-0.5699632630076337,-0.08819908370992367,0,0,0,0,0,0,0
4.836000680923462,1,288.6152084779651,24.84544368297793,-0.52734375,2.51953125,9.61328125,29.625,-15.3125,-40.375,0.53515625,0.064453125,-0.115234375,0.0665283203125,0.09967041015625,0.755859375,0.64373779296875,2.1930887207031247,-0.201112939453125,10.046070166015625,0.032508423603053435,-0.6888055329007635,-0.11431240758778627,0,0,0,0,0,0,0
4.869333982467651,1,287.66054706738004,24.84544368297793,-0.21875,2.63671875,9.375,29.625,-16.6875,-39.125,0.673828125,0.009765625,-0.119140625,0.0762939453125,0.11212158203125,0.7525634765625,0.6444091796875,2.24097275390625,0.6703764648437499,10.228029492187499,0.008793262122137404,-0.6685543837709924,-0.12363859468702292,0,0,0,0,0,0,0
4.902667284011841,1,287.18483014579823,24.84544368297793,-0.6796875,2.7890625,9.375,29.625,-16.6875,-39.125,0.77734375,-0.203125,0.005859375,0.089111328125,0.1241455078125,0.74908447265625,0.64459228515625,2.6431986328124997,0.5458779785156249,10.180145458984374,-0.3128269615572519,-0.906238923557252,0.022649311526717557,0,0,0,0,0,0,0
4.93600058555603,1,288.233333635977,24.84544368297793,-0.56640625,3.171875,9.33984375,30.0,-18.5625,-38.375,0.77734375,-0.203125,0.005859375,0.089111328125,0.1241455078125,0.74908447265625,0.64459228515625,2.5953145996093747,-0.316034619140625,9.8449572265625,-0.1742664675114504,-0.9254242227328245,-0.04290046065648855,0,0,0,0,0,0,0
4.96933388710022,1,287.9485257705391,24.84544368297793,0.0078125,3.01953125,9.26171875,30.0625,-20.3125,-37.5625,0.884765625,-0.1796875,-0.05859375,0.10797119140625,0.13653564453125,0.7452392578125,0.6436767578125,3.0262708984374997,-0.737414111328125,9.873687646484374,0.09512710841221375,-0.7879295786412214,-0.15987749312977098,0,0,0,0,0,0,0
5.002667188644409,1,287.66054706738004,24.850009575486183,0.23828125,3.28515625,9.1875,30.0625,-20.3125,-37.5625,0.791015625,0.041015625,-0.162109375,0.10797119140625,0.13653564453125,0.7452392578125,0.6436767578125,3.23696064453125,0.0,9.835380419921874,0.011990811984732825,-0.8779938997709924,-0.1478866811450382,0,0,0,0,0,0,0
5.036000490188599,1,288.5181454324643,24.850009575486183,-0.41015625,3.6328125,9.15234375,29.625,-20.6875,-35.5625,0.791015625,0.041015625,-0.162109375,0.11956787109375,0.15191650390625,0.740478515625,0.6436767578125,3.763685009765625,-0.258573779296875,9.442731347656249,-0.1409586564427481,-0.9328851724122139,-0.24621133941984735,0,0,0,0,0,0,0
5.069333791732788,1,287.4696250624485,24.84544368297793,-0.296875,3.8984375,8.95703125,29.3125,-22.75,-37.5625,0.91796875,-0.17578125,-0.26953125,0.13494873046875,0.167236328125,0.733154296875,0.645263671875,3.84987626953125,-0.13407529296874998,9.423577734375,-0.10685145790839697,-0.8931822616183207,-0.2923093499389313,0,0,0,0,0,0,0
5.1026670932769775,1,288.8061510382632,24.840877787210047,-0.14453125,4.47265625,8.61328125,29.3125,-22.75,-37.5625,0.806640625,-0.044921875,-0.271484375,0.1492919921875,0.18194580078125,0.724609375,0.64776611328125,4.050989208984375,0.076614453125,9.13627353515625,0.02238284903816794,-0.710122531984733,-0.1510842310076336,0,0,0,0,0,0,0
5.136000394821167,1,288.13627781937305,24.840877787210047,-0.14453125,4.47265625,8.61328125,30.0625,-23.875,-35.1875,0.806640625,-0.044921875,-0.271484375,0.1492919921875,0.18194580078125,0.724609375,0.64776611328125,4.912901806640625,0.411802685546875,8.8872765625,0.11671056998473284,-0.7783369290534352,-0.009059724610687023,0,0,0,0,0,0,0
5.1693336963653564,1,288.4210870718075,24.840877787210047,-0.375,5.05078125,8.38671875,29.6875,-25.3125,-34.3125,0.771484375,0.08984375,-0.025390625,0.1600341796875,0.196533203125,0.71954345703125,0.64654541015625,4.932055419921875,-0.22026655273437498,8.705317236328124,0.07674119670229008,-0.7159847067328244,-0.059421134946564896,0,0,0,0,0,0,0
5.202666997909546,1,288.2301551666582,24.836311888182536,-0.2578125,5.31640625,8.2265625,29.6875,-25.3125,-34.3125,0.65625,0.015625,-0.095703125,0.1600341796875,0.196533203125,0.71954345703125,0.64654541015625,4.367023828124999,0.22026655273437498,8.743624462890624,0.02637978636641222,-0.6411087474503817,-0.04876263540458016,0,0,0,0,0,0,0
5.236000299453735,1,288.0392266873328,24.840877787210047,-0.44921875,5.31640625,8.19140625,31.125,-28.5625,-32.8125,0.65625,0.015625,-0.095703125,0.17010498046875,0.20989990234375,0.71514892578125,0.6446533203125,4.453215087890625,0.17238251953125,9.0021982421875,-0.09192955854961832,-0.5049464158015268,-0.00799387465648855,0,0,0,0,0,0,0
5.269333600997925,1,288.6120224029234,24.836311888182536,-0.296875,5.66015625,7.96484375,29.6875,-28.9375,-32.375,0.482421875,-0.103515625,-0.017578125,0.179443359375,0.219482421875,0.71136474609375,0.64312744140625,4.99909306640625,-0.296881005859375,8.619125976562499,0.17320061755725194,-0.369317009129771,0.0026646248854961837,0,0,0,0,0,0,0
5.302666902542114,1,288.0392266873328,24.831745985895395,-0.10546875,5.77734375,8.03515625,29.6875,-28.9375,-32.375,0.357421875,0.154296875,-0.009765625,0.18353271484375,0.22796630859375,0.7098388671875,0.64068603515625,5.286397265624999,0.44053310546874996,8.63827958984375,0.11164778270229009,-0.3277488609160306,0.00799387465648855,0,0,0,0,0,0,0
5.336000204086304,1,287.66054706738004,24.840877787210047,-0.640625,5.73828125,7.96484375,31.125,-28.5625,-32.8125,0.357421875,0.154296875,-0.009765625,0.18353271484375,0.22796630859375,0.7098388671875,0.64068603515625,5.45877978515625,-0.086191259765625,8.542511523437499,-0.17639816741984735,-0.29044411251908403,0.04956202287022901,0,0,0,0,0,0,0
5.369333505630493,1,288.13627781937305,24.836311888182536,-0.375,5.77734375,7.9609375,30.0625,-29.25,-32.375,0.28125,-0.185546875,0.0390625,0.189453125,0.232421875,0.7081298828125,0.63922119140625,5.353434912109375,0.086191259765625,8.75320126953125,0.13562940667175574,-0.2547381390534351,0.06794793458015268,0,0,0,0,0,0,0
5.402666807174683,1,287.6573800055929,24.836311888182536,-0.18359375,5.890625,8.0,30.0625,-29.25,-32.375,0.26953125,0.109375,0.052734375,0.1923828125,0.23809814453125,0.707763671875,0.63665771484375,5.468356591796875,0.181959326171875,8.609549169921875,0.07940582158778627,-0.27712098809160307,0.06368453476335878,0,0,0,0,0,0,0
5.436000108718872,1,288.5149651126033,24.840877787210047,-0.52734375,5.8515625,7.92578125,30.4375,-29.3125,-30.8125,0.26953125,0.109375,0.052734375,0.1923828125,0.23809814453125,0.707763671875,0.63665771484375,5.516240625,0.009576806640625,8.705317236328124,0.0010658499541984733,-0.321886686167939,0.04902909789312977,0,0,0,0,0,0,0
5.4693334102630615,1,288.5149651126033,24.84544368297793,-0.41015625,5.9296875,7.921875,31.5625,-31.0625,-31.5625,0.3203125,-0.025390625,0.029296875,0.197509765625,0.2430419921875,0.7066650390625,0.6343994140625,5.449202978515625,0.0383072265625,8.657433203124999,0.075408884259542,-0.3354762730839695,0.05622358508396947,0,0,0,0,0,0,0
5.502666711807251,1,287.84830163369355,24.840877787210047,-0.21875,6.0078125,7.8828125,31.5625,-31.0625,-31.5625,0.40625,0.0859375,0.06640625,0.197509765625,0.2430419921875,0.7066650390625,0.6343994140625,5.516240625,0.01915361328125,8.695740429687499,0.1220398197557252,-0.4353997062900764,0.08473507135877863,0,0,0,0,0,0,0
5.53600001335144,1,288.324033395867,24.836311888182536,-0.2578125,5.9296875,8.0,31.5,-28.9375,-29.1875,0.40625,0.0859375,0.06640625,0.202392578125,0.2498779296875,0.70562744140625,0.63140869140625,5.88015927734375,0.181959326171875,8.29351455078125,-0.04023583577099237,-0.5342572895419848,0.06874732204580153,0,0,0,0,0,0,0
5.56933331489563,1,288.22698440453934,24.840877787210047,-0.48828125,6.390625,7.54296875,30.5,-32.125,-30.375,0.525390625,-0.06640625,0.060546875,0.2103271484375,0.25860595703125,0.70361328125,0.62750244140625,6.023811376953125,0.13407529296874998,8.188169677734374,-0.03890352332824428,-0.5142726029007634,0.08819908370992367,0,0,0,0,0,0,0
5.602666616439819,1,288.13310510496444,24.831745985895395,-0.14453125,6.54296875,7.42578125,30.5,-32.125,-30.375,0.482421875,-0.025390625,0.064453125,0.2193603515625,0.26593017578125,0.70123291015625,0.6240234375,6.244077929687499,-0.239420166015625,7.996633544921875,0.02398162396946565,-0.4532526930229008,0.04103522323664122,0,0,0,0,0,0,0
5.635999917984009,1,287.6573800055929,24.840877787210047,-0.14453125,6.62109375,7.3828125,30.4375,-32.125,-27.625,0.482421875,-0.025390625,0.064453125,0.2193603515625,0.26593017578125,0.70123291015625,0.6240234375,6.37815322265625,-0.105344873046875,7.843404638671874,0.03943644830534352,-0.44472589338931307,0.014655436870229008,0,0,0,0,0,0,0
5.669333219528198,1,288.324033395867,24.831745985895395,-0.2578125,6.88671875,7.15625,31.1875,-33.9375,-28.0,0.4296875,0.013671875,-0.001953125,0.22601318359375,0.27392578125,0.69879150390625,0.62091064453125,6.617573388671874,-0.05746083984375,7.632714892578124,0.07860643412213741,-0.32881471087022907,0.037571210885496184,0,0,0,0,0,0,0
5.702666521072388,1,287.75442390957744,24.831745985895395,-0.21875,7.0390625,7.04296875,31.1875,-33.9375,-28.0,0.279296875,0.0625,0.017578125,0.230224609375,0.2801513671875,0.69732666015625,0.6182861328125,6.5409589355468745,0.105344873046875,7.79552060546875,0.08526799633587788,-0.25287290163358783,0.022649311526717557,0,0,0,0,0,0,0
5.735999822616577,1,288.13310510496444,24.831745985895395,-0.296875,6.96484375,7.12109375,29.6875,-34.25,-26.8125,0.279296875,0.0625,0.017578125,0.230224609375,0.2801513671875,0.69732666015625,0.6182861328125,6.56968935546875,0.06703764648437499,7.79552060546875,0.05995405992366413,-0.23368760245801531,0.004263399816793893,0,0,0,0,0,0,0
5.769333124160767,1,287.6573800055929,24.831745985895395,-0.296875,7.00390625,7.08203125,30.875,-35.0,-28.0,0.236328125,0.03515625,-0.013671875,0.2330322265625,0.28515625,0.69610595703125,0.6163330078125,6.83783994140625,-0.01915361328125,7.575254052734374,0.12523736961832063,-0.14282389386259542,0.017852986732824427,0,0,0,0,0,0,0
5.802666425704956,1,287.8451384764761,24.831745985895395,-0.2578125,7.1171875,7.00390625,30.875,-35.0,-28.0,0.12109375,0.109375,0.03125,0.2335205078125,0.289306640625,0.69598388671875,0.61431884765625,6.598419775390624,0.277727392578125,7.728482958984374,0.0610199098778626,-0.10232159560305344,0.03730474839694657,0,0,0,0,0,0,0
5.8359997272491455,1,287.94534915162967,24.831745985895395,-0.52734375,7.0390625,7.00390625,30.4375,-32.125,-26.0,0.12109375,0.109375,0.03125,0.2335205078125,0.289306640625,0.69598388671875,0.61431884765625,6.713341455078124,0.12449848632812499,7.747636572265624,-0.04316692314503817,-0.07967228407633588,0.00985911207633588,0,0,0,0,0,0,0
5.869333028793335,1,288.22698440453934,24.827180080348626,-0.48828125,7.078125,6.96484375,30.8125,-33.1875,-25.625,0.0859375,-0.068359375,-0.001953125,0.2352294921875,0.29083251953125,0.695556640625,0.61346435546875,6.742071875,0.028730419921875,7.594407666015624,-0.055157735129771,-0.07620827172519085,0.010658499541984735,0,0,0,0,0,0,0
5.902666330337524,1,288.13310510496444,24.8180482594762,-0.3359375,7.078125,7.00390625,30.8125,-33.1875,-25.625,0.037109375,-0.03125,0.0078125,0.23687744140625,0.29107666015625,0.695068359375,0.61322021484375,6.809109521484374,0.0383072265625,7.584830859375,-0.006928024702290077,-0.018918836687022902,0.018918836687022902,0,0,0,0,0,0,0
5.935999631881714,1,288.2301551666582,24.827180080348626,-0.3359375,7.1171875,6.96484375,30.4375,-33.9375,-23.25,0.037109375,-0.03125,0.0078125,0.23687744140625,0.29107666015625,0.695068359375,0.61322021484375,6.665457421875,-0.047884033203124995,7.728482958984374,-0.004529862305343512,-0.0018652374198473284,0.00799387465648855,0,0,0,0,0,0,0
5.969332933425903,1,288.324033395867,24.822614171542227,-0.2578125,7.0390625,7.08203125,31.125,-34.625,-26.4375,0.01171875,-0.01953125,-0.01171875,0.2374267578125,0.291015625,0.6949462890625,0.6131591796875,6.617573388671874,0.105344873046875,7.71890615234375,0.012523736961832063,-0.05968759743511451,-0.000799387465648855,0,0,0,0,0,0,0
6.002666234970093,1,288.324033395867,24.831745985895395,-0.44921875,7.00390625,7.08203125,31.125,-34.625,-26.4375,0.087890625,-0.0234375,0.005859375,0.2374267578125,0.291015625,0.6949462890625,0.6131591796875,6.655880615234374,0.076614453125,7.671022119140624,0.00639509972519084,-0.09379479596946566,0.04583154803053435,0,0,0,0,0,0,0
6.035999536514282,1,288.51179250012916,24.827180080348626,-0.296875,7.12109375,6.96484375,31.1875,-35.75,-26.375,0.087890625,-0.0234375,0.005859375,0.23828125,0.2919921875,0.6944580078125,0.6129150390625,6.617573388671874,0.009576806640625,7.75721337890625,0.023182236503816796,-0.10178867062595422,0.02078407410687023,0,0,0,0,0,0,0
6.069332838058472,1,288.03605972773596,24.827180080348626,-0.3359375,7.078125,7.00390625,30.875,-36.0625,-24.875,0.087890625,-0.00390625,0.005859375,0.2398681640625,0.29339599609375,0.6942138671875,0.6119384765625,6.665457421875,0.06703764648437499,7.64229169921875,0.006928024702290077,-0.09859112076335878,-0.002398162396946565,0,0,0,0,0,0,0
6.102666139602661,1,288.51179250012916,24.827180080348626,-0.3359375,7.19921875,6.88671875,30.875,-36.0625,-24.875,0.078125,-0.03125,-0.02734375,0.24127197265625,0.294921875,0.69342041015625,0.61151123046875,6.866570361328125,-0.028730419921875,7.50821640625,0.005862174748091604,-0.05435834766412214,-0.011990811984732825,0,0,0,0,0,0,0
6.135999441146851,1,288.03605972773596,24.8180482594762,-0.2578125,7.1953125,6.92578125,30.8125,-35.0,-25.625,0.078125,-0.03125,-0.02734375,0.24127197265625,0.294921875,0.69342041015625,0.61151123046875,6.694187841796874,0.1149216796875,7.632714892578124,0.016787136778625956,-0.055157735129771,-0.004529862305343512,0,0,0,0,0,0,0
6.16933274269104,1,288.41474564955837,24.827180080348626,-0.375,7.1171875,6.96484375,31.125,-35.0,-25.25,0.048828125,-0.005859375,-0.01953125,0.24200439453125,0.29583740234375,0.69281005859375,0.6114501953125,6.818686328125,0.21068974609375,7.517793212890624,0.00799387465648855,-0.05702297254961833,0.034107198534351145,0,0,0,0,0,0,0
6.2026660442352295,1,288.03605972773596,24.827180080348626,-0.375,7.19921875,6.88671875,31.125,-35.0,-25.25,0.041015625,-0.013671875,0.029296875,0.24285888671875,0.29669189453125,0.693115234375,0.6103515625,6.8569935546875,-0.01915361328125,7.517793212890624,0.007727412167938932,-0.02531393641221374,0.022649311526717557,0,0,0,0,0,0,0
6.235999345779419,1,288.324033395867,24.822614171542227,-0.296875,7.23046875,6.84765625,30.8125,-35.0,-22.8125,0.041015625,-0.013671875,0.029296875,0.24285888671875,0.29669189453125,0.693115234375,0.6103515625,6.83783994140625,-0.01915361328125,7.584830859375,0.03970291079389313,-0.00319754986259542,0.02691271134351145,0,0,0,0,0,0,0
6.269332647323608,1,288.6995551322383,24.827180080348626,-0.296875,7.23046875,6.88671875,30.8125,-34.625,-24.4375,0.005859375,0.01953125,0.015625,0.24298095703125,0.2972412109375,0.693603515625,0.6094970703125,6.8569935546875,0.06703764648437499,7.536946826171874,0.04343338563358779,0.010125574564885496,0.05435834766412214,0,0,0,0,0,0,0
6.302665948867798,1,287.7481013974186,24.827180080348626,-0.3359375,7.2265625,6.84765625,30.8125,-34.625,-24.4375,-0.001953125,0.025390625,0.033203125,0.24261474609375,0.29766845703125,0.69451904296875,0.6083984375,6.904877587890625,-0.086191259765625,7.575254052734374,0.05782236001526718,0.018918836687022902,0.04290046065648855,0,0,0,0,0,0,0
6.335999250411987,1,287.5603407857786,24.827180080348626,-0.2578125,7.2265625,6.84765625,30.8125,-34.625,-24.0,-0.001953125,0.025390625,0.033203125,0.24261474609375,0.29766845703125,0.69451904296875,0.6083984375,6.8569935546875,0.13407529296874998,7.5465236328125,0.04982848535877863,0.017320061755725192,-0.014921899358778627,0,0,0,0,0,0,0
6.369332551956177,1,288.22698440453934,24.831745985895395,-0.41015625,7.16015625,6.92578125,31.1875,-35.375,-25.625,-0.015625,0.0078125,-0.03125,0.24176025390625,0.29815673828125,0.69500732421875,0.6080322265625,6.770802294921874,0.13407529296874998,7.632714892578124,0.02131699908396947,0.0061286372366412215,0.018918836687022902,0,0,0,0,0,0,0
6.402665853500366,1,288.3208645860674,24.827180080348626,-0.41015625,7.16015625,6.92578125,31.1875,-35.375,-25.625,0.0,0.0,0.0078125,0.24176025390625,0.29815673828125,0.69500732421875,0.6080322265625,6.694187841796874,0.028730419921875,7.6997525390625,0.02717917383206107,-0.018918836687022902,0.021849924061068705,0,0,0,0,0,0,0
6.435999155044556,1,288.22698440453934,24.822614171542227,-0.3359375,7.16015625,6.92578125,30.8125,-34.625,-25.625,0.0,0.0,0.0078125,0.24163818359375,0.29827880859375,0.6951904296875,0.60772705078125,6.694187841796874,0.258573779296875,7.738059765625,-0.021583461572519086,-0.04689739798473283,0.02398162396946565,0,0,0,0,0,0,0
6.469332456588745,1,288.2238213496056,24.822614171542227,-0.296875,7.23046875,6.88671875,31.125,-34.25,-24.8125,0.0546875,-0.041015625,0.015625,0.2423095703125,0.29888916015625,0.6953125,0.6070556640625,6.924031201171875,-0.01915361328125,7.431601953125,-0.00799387465648855,-0.033041348580152674,0.008793262122137404,0,0,0,0,0,0,0
6.502665758132935,1,288.60567337519734,24.827180080348626,-0.2578125,7.26953125,6.84765625,31.125,-34.25,-24.8125,0.021484375,-0.001953125,-0.0078125,0.2430419921875,0.29949951171875,0.69512939453125,0.60662841796875,6.943184814453125,0.105344873046875,7.556100439453124,0.012523736961832063,-0.022915774015267176,0.0026646248854961837,0,0,0,0,0,0,0
6.535999059677124,1,287.84830163369355,24.822614171542227,-0.3359375,7.2265625,6.84765625,30.4375,-33.9375,-24.4375,0.021484375,-0.001953125,-0.0078125,0.2430419921875,0.29949951171875,0.69512939453125,0.60662841796875,6.809109521484374,-0.01915361328125,7.613561279296874,0.0159877493129771,-0.03357427355725191,-0.005862174748091604,0,0,0,0,0,0,0
6.5693323612213135,1,288.22698440453934,24.836311888182536,-0.296875,7.23046875,6.88671875,30.4375,-36.0625,-24.375,0.033203125,-0.00390625,-0.025390625,0.24322509765625,0.30023193359375,0.6949462890625,0.6064453125,6.8569935546875,0.076614453125,7.5465236328125,0.0021316999083969466,-0.034107198534351145,-0.010125574564885496,0,0,0,0,0,0,0
6.602665662765503,1,288.9907173700116,24.822614171542227,-0.3359375,7.3046875,6.7734375,30.4375,-36.0625,-24.375,0.013671875,-0.025390625,-0.0234375,0.24359130859375,0.3009033203125,0.69451904296875,0.60638427734375,6.76122548828125,0.047884033203124995,7.498639599609374,-0.01119142451908397,-0.015454824335877864,-0.007460949679389314,0,0,0,0,0,0,0
6.635998964309692,1,288.2238213496056,24.827180080348626,-0.375,7.19921875,6.84765625,30.8125,-34.625,-23.625,0.013671875,-0.025390625,-0.0234375,0.24359130859375,0.3009033203125,0.69451904296875,0.60638427734375,6.83783994140625,0.1149216796875,7.584830859375,-0.02744563632061069,-0.023448698992366415,-0.011457887007633588,0,0,0,0,0,0,0
6.669332265853882,1,288.51179250012916,24.836311888182536,-0.375,7.2265625,6.84765625,30.5,-35.375,-26.0,0.03515625,-0.052734375,-0.02734375,0.24444580078125,0.3011474609375,0.6939697265625,0.60662841796875,6.962338427734375,0.06703764648437499,7.4603323730468745,0.0005329249770992366,-0.003996937328244275,0.0010658499541984733,0,0,0,0,0,0,0
6.702665567398071,1,288.60567337519734,24.827180080348626,-0.296875,7.3046875,6.8125,30.5,-35.375,-26.0,-0.013671875,-0.005859375,0.01171875,0.24468994140625,0.30108642578125,0.694091796875,0.6064453125,7.019799267578125,0.0,7.575254052734374,0.008526799633587786,0.028245023786259545,0.022649311526717557,0,0,0,0,0,0,0
6.735998868942261,1,288.51179250012916,24.827180080348626,-0.296875,7.265625,6.8125,30.0625,-35.375,-24.375,-0.013671875,-0.005859375,0.01171875,0.24468994140625,0.30108642578125,0.694091796875,0.6064453125,6.847416748046874,0.047884033203124995,7.632714892578124,0.031442573648854964,0.034906586,0.04263399816793894,0,0,0,0,0,0,0
6.76933217048645,1,287.7481013974186,24.822614171542227,-0.296875,7.265625,6.84765625,30.875,-35.75,-25.25,-0.03125,0.0078125,0.029296875,0.2442626953125,0.30078125,0.69482421875,0.60589599609375,6.847416748046874,0.12449848632812499,7.56567724609375,0.024514548946564886,0.04743032296183207,0.055157735129771,0,0,0,0,0,0,0
6.80266547203064,1,288.3208645860674,24.836311888182536,-0.296875,7.265625,6.84765625,30.875,-35.75,-25.25,-0.017578125,-0.00390625,0.033203125,0.243896484375,0.30035400390625,0.69580078125,0.6051025390625,6.770802294921874,-0.0383072265625,7.575254052734374,0.031442573648854964,0.005595712259541985,0.031176111160305348,0,0,0,0,0,0,0
6.835998773574829,1,288.3208645860674,24.827180080348626,-0.2578125,7.1953125,6.92578125,30.0625,-36.375,-23.25,-0.017578125,-0.00390625,0.033203125,0.243896484375,0.30035400390625,0.69580078125,0.6051025390625,6.866570361328125,0.047884033203124995,7.4699091796875,-0.0061286372366412215,-0.014122511893129772,-0.0002664624885496183,0,0,0,0,0,0,0
6.8693320751190186,1,288.70272384001976,24.822614171542227,-0.3359375,7.2265625,6.84765625,30.875,-35.0,-26.875,0.015625,-0.017578125,-0.009765625,0.24395751953125,0.30059814453125,0.6959228515625,0.60479736328125,6.8569935546875,0.01915361328125,7.536946826171874,0.009326187099236643,-0.03090964867175573,0.005595712259541985,0,0,0,0,0,0,0
6.902665376663208,1,288.13310510496444,24.822614171542227,-0.296875,7.23046875,6.88671875,30.875,-35.0,-26.875,0.029296875,-0.009765625,-0.009765625,0.244384765625,0.30108642578125,0.6956787109375,0.60467529296875,6.8569935546875,0.047884033203124995,7.584830859375,0.007460949679389314,-0.031709036137404584,0.003730474839694657,0,0,0,0,0,0,0
6.9359986782073975,1,288.03605972773596,24.822614171542227,-0.296875,7.23046875,6.84765625,30.8125,-35.375,-22.875,0.029296875,-0.009765625,-0.009765625,0.244384765625,0.30108642578125,0.6956787109375,0.60467529296875,6.885723974609375,0.028730419921875,7.50821640625,-0.0021316999083969466,-0.031709036137404584,0.0159877493129771,0,0,0,0,0,0,0
6.969331979751587,1,288.3208645860674,24.8180482594762,-0.2578125,7.30859375,6.8125,30.8125,-35.375,-24.4375,0.02734375,-0.013671875,-0.00390625,0.2449951171875,0.30169677734375,0.69549560546875,0.6043701171875,6.866570361328125,-0.0383072265625,7.45075556640625,0.010392037053435116,-0.000799387465648855,-0.0053292497709923675,0,0,0,0,0,0,0
7.002665281295776,1,288.70272384001976,24.822614171542227,-0.2578125,7.30859375,6.8125,30.8125,-35.375,-24.4375,-0.001953125,-0.0078125,-0.025390625,0.24493408203125,0.30194091796875,0.6953125,0.6044921875,6.79953271484375,0.0383072265625,7.48906279296875,0.024514548946564886,-0.0013323124427480919,-0.023448698992366415,0,0,0,0,0,0,0
7.035998582839966,1,288.03605972773596,24.822614171542227,-0.2578125,7.2265625,6.84765625,30.4375,-35.375,-25.25,-0.001953125,-0.0078125,-0.025390625,0.24493408203125,0.30194091796875,0.6953125,0.6044921875,6.9336080078124995,0.19153613281249998,7.517793212890624,0.012523736961832063,0.009326187099236643,-0.00319754986259542,0,0,0,0,0,0,0
7.069331884384155,1,288.41474564955837,24.831745985895395,-0.41015625,7.26953125,6.8125,31.125,-34.625,-24.875,-0.0078125,-0.001953125,-0.017578125,0.2445068359375,0.30230712890625,0.69512939453125,0.6046142578125,6.89530078125,0.28730419921875,7.4603323730468745,-0.006928024702290077,-0.0010658499541984733,0.03970291079389313,0,0,0,0,0,0,0
7.102665185928345,1,288.7966045266651,24.822614171542227,-0.375,7.2265625,6.84765625,31.125,-34.625,-24.875,0.009765625,-0.013671875,0.03515625,0.244873046875,0.30224609375,0.695556640625,0.60400390625,6.904877587890625,-0.047884033203124995,7.584830859375,0.01945176166412214,-0.01971822415267176,0.0479632479389313,0,0,0,0,0,0,0
7.135998487472534,1,288.9875391041043,24.827180080348626,-0.2578125,7.26953125,6.84765625,30.4375,-34.625,-24.5,0.009765625,-0.013671875,0.03515625,0.244873046875,0.30224609375,0.695556640625,0.60400390625,6.885723974609375,-0.0383072265625,7.536946826171874,0.017053599267175572,-0.028511486274809164,0.02558039890076336,0,0,0,0,0,0,0
7.169331789016724,1,288.60567337519734,24.822614171542227,-0.2578125,7.26953125,6.8125,30.8125,-33.5625,-25.625,0.0234375,0.001953125,0.009765625,0.2452392578125,0.30267333984375,0.6959228515625,0.603271484375,6.904877587890625,0.047884033203124995,7.4603323730468745,0.014921899358778627,-0.011457887007633588,0.005062787282442748,0,0,0,0,0,0,0
7.202665090560913,1,288.12994009768687,24.822614171542227,-0.2578125,7.3046875,6.7734375,30.8125,-33.5625,-25.625,-0.009765625,0.021484375,-0.00390625,0.24517822265625,0.3031005859375,0.696044921875,0.60296630859375,6.83783994140625,0.22026655273437498,7.50821640625,0.04343338563358779,0.005595712259541985,0.03597243595419848,0,0,0,0,0,0,0
7.2359983921051025,1,288.22698440453934,24.822614171542227,-0.3359375,7.26953125,6.8125,31.125,-34.3125,-24.0,-0.009765625,0.021484375,-0.00390625,0.24517822265625,0.3031005859375,0.696044921875,0.60296630859375,6.885723974609375,0.21068974609375,7.556100439453124,0.015721286824427482,0.0013323124427480919,0.0450321605648855,0,0,0,0,0,0,0
7.269331693649292,1,288.6995551322383,24.827180080348626,-0.296875,7.265625,6.84765625,30.8125,-34.625,-25.625,0.0,-0.00390625,0.033203125,0.2451171875,0.30316162109375,0.69677734375,0.60211181640625,6.9144543945312495,-0.076614453125,7.536946826171874,-0.008793262122137404,-0.01119142451908397,0.00959264958778626,0,0,0,0,0,0,0
7.3026649951934814,1,289.0845967978581,24.822614171542227,-0.18359375,7.30859375,6.8125,30.8125,-34.625,-25.625,0.009765625,-0.013671875,-0.017578125,0.2451171875,0.30316162109375,0.69677734375,0.60211181640625,6.9719152343749995,-0.09576806640624999,7.4794859863281244,0.02691271134351145,-0.0018652374198473284,-0.010392037053435116,0,0,0,0,0,0,0
7.335998296737671,1,288.98436854588397,24.8180482594762,-0.2578125,7.26953125,6.8125,30.4375,-34.625,-24.5,0.009765625,-0.013671875,-0.017578125,0.24554443359375,0.30328369140625,0.69671630859375,0.6019287109375,6.818686328125,0.1149216796875,7.613561279296874,0.02771209880916031,-0.01918529917557252,-0.010658499541984735,0,0,0,0,0,0,0
7.36933159828186,1,288.41474564955837,24.822614171542227,-0.375,7.2265625,6.84765625,30.0625,-35.375,-25.625,0.00390625,0.009765625,-0.03125,0.24505615234375,0.303955078125,0.6964111328125,0.60211181640625,6.943184814453125,0.105344873046875,7.498639599609374,0.011457887007633588,-0.03597243595419848,0.0061286372366412215,0,0,0,0,0,0,0
7.40266489982605,1,288.41474564955837,24.827180080348626,-0.3359375,7.3046875,6.7734375,30.0625,-35.375,-25.625,0.0390625,-0.009765625,0.001953125,0.2454833984375,0.3046875,0.6962890625,0.6016845703125,7.019799267578125,0.09576806640624999,7.41244833984375,-0.0021316999083969466,-0.029044411251908403,0.003996937328244275,0,0,0,0,0,0,0
7.435998201370239,1,289.08142048429465,24.808916425565258,-0.3359375,7.34765625,6.734375,30.8125,-34.25,-24.5,0.0390625,-0.009765625,0.001953125,0.2454833984375,0.3046875,0.6962890625,0.6016845703125,6.89530078125,0.105344873046875,7.431601953125,-0.01119142451908397,-0.014388974381679392,0.007460949679389314,0,0,0,0,0,0,0
7.469331502914429,1,288.22698440453934,24.827180080348626,-0.296875,7.3046875,6.8125,30.0625,-34.625,-23.625,0.013671875,-0.029296875,-0.001953125,0.24609375,0.30487060546875,0.69610595703125,0.6015625,7.038952880859375,0.06703764648437499,7.48906279296875,-0.008526799633587786,-0.02238284903816794,0.009059724610687023,0,0,0,0,0,0,0
7.502664804458618,1,288.60567337519734,24.827180080348626,-0.2578125,7.3046875,6.7734375,30.0625,-34.625,-23.625,0.005859375,-0.013671875,-0.00390625,0.24664306640625,0.30499267578125,0.6959228515625,0.60150146484375,6.924031201171875,-0.009576806640625,7.4603323730468745,0.010658499541984735,-0.004263399816793893,0.0053292497709923675,0,0,0,0,0,0,0
7.535998106002808,1,288.22698440453934,24.8180482594762,-0.2578125,7.38671875,6.734375,30.8125,-34.25,-24.0,0.005859375,-0.013671875,-0.00390625,0.24664306640625,0.30499267578125,0.6959228515625,0.60150146484375,6.87614716796875,0.047884033203124995,7.48906279296875,0.015188361847328247,0.02584686138931298,0.017320061755725192,0,0,0,0,0,0,0
7.569331407546997,1,288.12678279752555,24.8180482594762,-0.296875,7.34375,6.734375,29.375,-37.125,-25.625,-0.03125,0.001953125,0.001953125,0.24627685546875,0.30487060546875,0.69622802734375,0.60137939453125,6.818686328125,0.12449848632812499,7.498639599609374,0.01119142451908397,0.007460949679389314,0.02771209880916031,0,0,0,0,0,0,0
7.6026647090911865,1,288.6025104224883,24.813482344150543,-0.296875,7.23046875,6.84765625,29.375,-37.125,-25.625,0.005859375,-0.0078125,0.00390625,0.24627685546875,0.3048095703125,0.69647216796875,0.60113525390625,6.9910688476562495,0.0383072265625,7.4028715332031245,0.015721286824427482,-0.005595712259541985,0.010658499541984735,0,0,0,0,0,0,0
7.635998010635376,1,288.3177034835021,24.813482344150543,-0.2578125,7.34765625,6.7734375,30.4375,-35.75,-22.875,0.005859375,-0.0078125,0.00390625,0.24627685546875,0.3048095703125,0.69647216796875,0.60113525390625,6.885723974609375,0.15322890625,7.5465236328125,0.013589586916030535,-0.0013323124427480919,0.011990811984732825,0,0,0,0,0,0,0
7.669331312179565,1,288.5086275950271,24.8180482594762,-0.3359375,7.30859375,6.8125,30.4375,-34.625,-24.875,0.0,0.00390625,0.00390625,0.24603271484375,0.3050537109375,0.69671630859375,0.600830078125,6.818686328125,0.1149216796875,7.584830859375,-0.0130566619389313,-0.05062787282442748,0.031709036137404584,0,0,0,0,0,0,0
7.702664613723755,1,288.41158649939604,24.808916425565258,-0.375,7.2265625,6.84765625,30.4375,-34.625,-24.875,0.0703125,-0.025390625,0.017578125,0.2471923828125,0.3056640625,0.696533203125,0.6002197265625,6.981492041015625,0.05746083984375,7.4220251464843745,0.006928024702290077,-0.05542419761832062,0.0319754986259542,0,0,0,0,0,0,0
7.735997915267944,1,288.5086275950271,24.813482344150543,-0.2578125,7.34765625,6.7734375,30.4375,-35.375,-22.875,0.0703125,-0.025390625,0.017578125,0.2471923828125,0.3056640625,0.696533203125,0.6002197265625,6.904877587890625,-0.0383072265625,7.4603323730468745,0.022649311526717557,-0.059421134946564896,0.04743032296183207,0,0,0,0,0,0,0
7.769331216812134,1,288.8873212922976,24.8180482594762,-0.2578125,7.3046875,6.7734375,30.5,-36.375,-24.875,0.05859375,-0.00390625,0.0234375,0.24822998046875,0.306640625,0.69659423828125,0.5992431640625,7.029376074218749,-0.05746083984375,7.431601953125,-0.006661562213740459,-0.08073813403053436,0.01918529917557252,0,0,0,0,0,0,0
7.802664518356323,1,288.6025104224883,24.7997845786158,-0.14453125,7.46484375,6.65625,30.5,-36.375,-24.875,0.0625,0.0078125,-0.015625,0.24932861328125,0.3079833984375,0.69610595703125,0.59869384765625,7.096413720703125,-0.0383072265625,7.230489013671875,0.034906586,-0.05196018526717557,-0.004529862305343512,0,0,0,0,0,0,0
7.835997819900513,1,288.7934377712717,24.804350503720343,-0.3359375,7.4609375,6.62109375,30.5,-37.875,-23.25,0.0625,0.0078125,-0.015625,0.24932861328125,0.3079833984375,0.69610595703125,0.59869384765625,6.9910688476562495,0.16280571289062498,7.335833886718749,0.0061286372366412215,-0.02131699908396947,0.0018652374198473284,0,0,0,0,0,0,0
7.869331121444702,1,288.6025104224883,24.804350503720343,-0.3359375,7.3828125,6.6953125,30.0625,-36.375,-24.0625,0.00390625,-0.0078125,-0.01171875,0.249267578125,0.30877685546875,0.6959228515625,0.5985107421875,7.000645654296875,-0.009576806640625,7.41244833984375,0.02771209880916031,-0.027978561297709925,0.01279019945038168,0,0,0,0,0,0,0
7.902664422988892,1,288.8873212922976,24.8180482594762,-0.21875,7.3828125,6.6953125,30.0625,-36.375,-24.0625,0.009765625,0.01953125,-0.001953125,0.24920654296875,0.309326171875,0.696044921875,0.59814453125,6.9144543945312495,0.086191259765625,7.3932947265625,-0.0026646248854961837,-0.017852986732824427,0.018385911709923666,0,0,0,0,0,0,0
7.935997724533081,1,289.46012332890814,24.808916425565258,-0.375,7.421875,6.65625,31.5,-35.75,-22.875,0.009765625,0.01953125,-0.001953125,0.24920654296875,0.309326171875,0.696044921875,0.59814453125,7.029376074218749,-0.09576806640624999,7.268796240234375,0.011724349496183208,-0.018385911709923666,0.00959264958778626,0,0,0,0,0,0,0
7.9693310260772705,1,288.7934377712717,24.813482344150543,-0.21875,7.42578125,6.6953125,31.1875,-35.75,-25.25,0.00390625,-0.01171875,0.001953125,0.2493896484375,0.3094482421875,0.6961669921875,0.59783935546875,7.077260107421875,-0.01915361328125,7.297526660156249,0.034107198534351145,-0.01918529917557252,0.01119142451908397,0,0,0,0,0,0,0
8.00266432762146,1,288.79027872341277,24.808916425565258,-0.2578125,7.42578125,6.6953125,31.1875,-35.75,-25.25,0.025390625,0.02734375,0.005859375,0.24932861328125,0.3101806640625,0.6962890625,0.59735107421875,7.077260107421875,0.201112939453125,7.326257080078125,0.011724349496183208,-0.02211638654961832,0.039169985816793894,0,0,0,0,0,0,0
8.03599762916565,1,288.8873212922976,24.804350503720343,-0.375,7.421875,6.65625,31.125,-35.0,-24.0625,0.025390625,0.02734375,0.005859375,0.24932861328125,0.3101806640625,0.6962890625,0.59735107421875,7.0102224609374995,-0.076614453125,7.37414111328125,-0.012523736961832063,-0.032508423603053435,0.03890352332824428,0,0,0,0,0,0,0
8.069330930709839,1,288.98436854588397,24.808916425565258,-0.3359375,7.421875,6.65625,30.875,-38.5625,-25.25,0.01171875,-0.029296875,0.021484375,0.24993896484375,0.31024169921875,0.696533203125,0.5968017578125,7.038952880859375,-0.143652099609375,7.37414111328125,0.015454824335877864,-0.005862174748091604,0.02105053659541985,0,0,0,0,0,0,0
8.102664232254028,1,289.3630699168058,24.808916425565258,-0.18359375,7.46484375,6.65625,30.875,-38.5625,-25.25,-0.0078125,0.01171875,0.001953125,0.25,0.31048583984375,0.69671630859375,0.59637451171875,7.000645654296875,0.009576806640625,7.307103466796875,0.022649311526717557,0.017053599267175572,0.023182236503816796,0,0,0,0,0,0,0
8.135997533798218,1,288.8841641969006,24.813482344150543,-0.2578125,7.4609375,6.62109375,30.4375,-36.0625,-21.6875,-0.0078125,0.01171875,0.001953125,0.25,0.31048583984375,0.69671630859375,0.59637451171875,7.029376074218749,0.17238251953125,7.220912207031249,0.003730474839694657,0.008793262122137404,0.023182236503816796,0,0,0,0,0,0,0
8.169330835342407,1,288.8873212922976,24.804350503720343,-0.296875,7.42578125,6.65625,30.5,-36.0,-25.625,-0.025390625,-0.015625,0.01171875,0.24969482421875,0.3101806640625,0.69708251953125,0.59625244140625,7.000645654296875,-0.076614453125,7.335833886718749,-0.00319754986259542,0.010125574564885496,0.022649311526717557,0,0,0,0,0,0,0
8.202664136886597,1,289.269185890638,24.804350503720343,-0.14453125,7.46484375,6.65625,30.5,-36.0,-25.625,-0.017578125,-0.0078125,-0.00390625,0.24969482421875,0.3101806640625,0.69708251953125,0.59625244140625,7.086836914062499,-0.0383072265625,7.4028715332031245,0.03543951097709924,0.010125574564885496,0.00319754986259542,0,0,0,0,0,0,0
8.235997438430786,1,289.269185890638,24.7997845786158,-0.21875,7.46484375,6.65625,30.875,-35.75,-25.25,-0.017578125,-0.0078125,-0.00390625,0.24981689453125,0.309814453125,0.697265625,0.59619140625,7.038952880859375,0.01915361328125,7.37414111328125,0.02051761161832061,-0.017320061755725192,0.004529862305343512,0,0,0,0,0,0,0
8.269330739974976,1,289.17213609308254,24.804350503720343,-0.41015625,7.38671875,6.65625,30.4375,-35.375,-24.5,-0.001953125,0.0078125,-0.015625,0.24920654296875,0.31024169921875,0.69732666015625,0.59613037109375,7.000645654296875,0.143652099609375,7.3932947265625,-0.033041348580152674,-0.026646248854961835,0.033041348580152674,0,0,0,0,0,0,0
8.302664041519165,1,289.075090980381,24.804350503720343,-0.2578125,7.4609375,6.62109375,30.4375,-35.375,-24.5,-0.00390625,-0.037109375,0.013671875,0.24993896484375,0.31005859375,0.6973876953125,0.59588623046875,7.096413720703125,-0.13407529296874998,7.307103466796875,0.013589586916030535,0.01119142451908397,0.023182236503816796,0,0,0,0,0,0,0
8.335997343063354,1,288.69324083911124,24.7997845786158,-0.14453125,7.4609375,6.62109375,31.125,-35.75,-23.25,-0.00390625,-0.037109375,0.013671875,0.24993896484375,0.31005859375,0.6973876953125,0.59588623046875,7.038952880859375,0.05746083984375,7.297526660156249,0.01279019945038168,0.009326187099236643,0.007194487190839696,0,0,0,0,0,0,0
8.369330644607544,1,289.269185890638,24.808916425565258,-0.2578125,7.42578125,6.6953125,31.125,-35.0,-23.6875,-0.01171875,0.001953125,-0.005859375,0.24969482421875,0.30999755859375,0.69757080078125,0.59576416015625,7.125144140624999,-0.047884033203124995,7.316680273437499,0.005595712259541985,-0.005595712259541985,0.0010658499541984733,0,0,0,0,0,0,0
8.402663946151733,1,288.69639413194693,24.808916425565258,-0.21875,7.421875,6.65625,31.125,-35.0,-23.6875,-0.01171875,0.00390625,-0.01953125,0.24951171875,0.31005859375,0.69744873046875,0.595947265625,7.096413720703125,0.05746083984375,7.431601953125,0.018385911709923666,0.002398162396946565,-0.003730474839694657,0,0,0,0,0,0,0
8.435997247695923,1,288.4084350565024,24.804350503720343,-0.2578125,7.421875,6.65625,30.8125,-35.75,-22.875,-0.01171875,0.00390625,-0.01953125,0.24951171875,0.31005859375,0.69744873046875,0.595947265625,6.9719152343749995,-0.01915361328125,7.364564306640625,0.019984686641221373,-0.00639509972519084,0.011990811984732825,0,0,0,0,0,0,0
8.469330549240112,1,288.69639413194693,24.7997845786158,-0.296875,7.42578125,6.65625,30.4375,-36.375,-24.0625,-0.01171875,-0.001953125,-0.001953125,0.249267578125,0.3101806640625,0.697509765625,0.595947265625,7.086836914062499,-0.028730419921875,7.345410693359375,0.010924962030534353,-0.018119449221374047,0.007460949679389314,0,0,0,0,0,0,0
8.502663850784302,1,289.075090980381,24.795218650251627,-0.21875,7.421875,6.65625,30.4375,-36.375,-24.0625,0.0078125,-0.005859375,0.0,0.249267578125,0.31036376953125,0.69757080078125,0.59576416015625,7.038952880859375,0.09576806640624999,7.268796240234375,0.004263399816793893,-0.0159877493129771,0.02424808645801527,0,0,0,0,0,0,0
8.535997152328491,1,288.69324083911124,24.804350503720343,-0.296875,7.46484375,6.62109375,30.8125,-36.125,-22.875,0.0078125,-0.005859375,0.0,0.249267578125,0.31036376953125,0.69757080078125,0.59576416015625,7.048529687499999,-0.05746083984375,7.335833886718749,0.010125574564885496,-0.033041348580152674,0.03970291079389313,0,0,0,0,0,0,0
8.56933045387268,1,288.9812056953308,24.7997845786158,-0.21875,7.4609375,6.62109375,30.0625,-35.375,-24.875,0.021484375,-0.001953125,0.025390625,0.24969482421875,0.31060791015625,0.69775390625,0.59521484375,7.173028173828125,-0.047884033203124995,7.211335400390625,0.00985911207633588,-0.033840736045801526,0.02744563632061069,0,0,0,0,0,0,0
8.60266375541687,1,289.17213609308254,24.804350503720343,-0.21875,7.4609375,6.62109375,30.0625,-35.375,-24.875,0.0,0.009765625,-0.00390625,0.24969482421875,0.31060791015625,0.69775390625,0.59521484375,7.259219433593749,-0.105344873046875,7.297526660156249,0.03090964867175573,0.0130566619389313,-0.005062787282442748,0,0,0,0,0,0,0
8.63599705696106,1,289.16897714746796,24.804350503720343,-0.2578125,7.4609375,6.62109375,30.125,-37.5,-23.25,0.0,0.009765625,-0.00390625,0.2498779296875,0.31103515625,0.69781494140625,0.5948486328125,7.0102224609374995,-0.05746083984375,7.4028715332031245,0.0261133238778626,0.006928024702290077,0.010924962030534353,0,0,0,0,0,0,0
8.669330358505249,1,288.41158649939604,24.804350503720343,-0.2578125,7.4609375,6.62109375,31.5,-34.3125,-25.25,-0.01171875,0.013671875,-0.01171875,0.24932861328125,0.31121826171875,0.69793701171875,0.5948486328125,7.077260107421875,-0.086191259765625,7.297526660156249,0.017320061755725192,0.008526799633587786,0.006928024702290077,0,0,0,0,0,0,0
8.702663660049438,1,288.8841641969006,24.804350503720343,-0.3359375,7.5,6.62109375,31.5,-34.3125,-25.25,-0.025390625,-0.0078125,0.005859375,0.24896240234375,0.31109619140625,0.69818115234375,0.59478759765625,7.058106494140625,0.01915361328125,7.278373046874999,-0.015188361847328247,0.02771209880916031,0.030376723694656493,0,0,0,0,0,0,0
8.735996961593628,1,289.0782518784821,24.7997845786158,-0.2578125,7.4609375,6.62109375,31.125,-37.5,-22.5,-0.025390625,-0.0078125,0.005859375,0.24896240234375,0.31109619140625,0.69818115234375,0.59478759765625,7.0102224609374995,0.0,7.345410693359375,0.00799387465648855,0.014655436870229008,0.03890352332824428,0,0,0,0,0,0,0
8.769330263137817,1,289.269185890638,24.7997845786158,-0.18359375,7.42578125,6.6953125,31.125,-35.75,-23.3125,-0.0234375,0.0,0.021484375,0.24884033203125,0.3104248046875,0.69873046875,0.59454345703125,7.058106494140625,-0.17238251953125,7.3837179199218745,0.003996937328244275,-0.024781011435114506,0.010658499541984735,0,0,0,0,0,0,0
8.802663564682007,1,288.50232090686546,24.7997845786158,-0.21875,7.4609375,6.62109375,31.125,-35.75,-23.3125,0.00390625,-0.001953125,0.001953125,0.24884033203125,0.310546875,0.6988525390625,0.59429931640625,7.201758593749999,0.05746083984375,7.268796240234375,0.0005329249770992366,-0.00159877493129771,0.017320061755725192,0,0,0,0,0,0,0
8.835996866226196,1,289.269185890638,24.808916425565258,-0.2578125,7.5390625,6.54296875,30.0625,-35.75,-22.875,0.00390625,-0.001953125,0.001953125,0.24884033203125,0.310546875,0.6988525390625,0.59429931640625,7.115567333984375,-0.06703764648437499,7.278373046874999,-0.003996937328244275,0.02211638654961832,0.021583461572519086,0,0,0,0,0,0,0
8.869330167770386,1,288.69639413194693,24.795218650251627,-0.21875,7.5,6.58203125,30.0625,-35.0,-24.0625,-0.04296875,-0.013671875,0.009765625,0.24871826171875,0.309814453125,0.69915771484375,0.59442138671875,7.048529687499999,0.047884033203124995,7.182604980468749,-0.0021316999083969466,0.0668820846259542,0.01945176166412214,0,0,0,0,0,0,0
8.902663469314575,1,288.79027872341277,24.7997845786158,-0.2578125,7.5,6.58203125,30.0625,-35.0,-24.0625,-0.09375,-0.01171875,0.017578125,0.2479248046875,0.30841064453125,0.69976806640625,0.5947265625,7.077260107421875,-0.028730419921875,7.163451367187499,-0.004529862305343512,0.13722818160305345,0.018652374198473286,0,0,0,0,0,0,0
8.935996770858765,1,288.8873212922976,24.808916425565258,-0.21875,7.5390625,6.54296875,31.125,-36.125,-23.25,-0.09375,-0.01171875,0.017578125,0.2479248046875,0.30841064453125,0.69976806640625,0.5947265625,7.096413720703125,-0.028730419921875,7.211335400390625,0.0,0.17106891764885498,0.01279019945038168,0,0,0,0,0,0,0
8.969330072402954,1,288.9812056953308,24.804350503720343,-0.18359375,7.5,6.58203125,31.125,-34.625,-25.6875,-0.173828125,-0.021484375,0.00390625,0.24603271484375,0.30548095703125,0.7010498046875,0.5955810546875,7.096413720703125,-0.16280571289062498,7.4411787597656245,0.000799387465648855,0.18679020447328246,0.007194487190839696,0,0,0,0,0,0,0
9.002663373947144,1,289.3630699168058,24.7997845786158,-0.14453125,7.3828125,6.6953125,31.125,-34.625,-25.6875,-0.193359375,0.00390625,-0.015625,0.2431640625,0.3023681640625,0.70233154296875,0.59674072265625,6.9719152343749995,-0.143652099609375,7.48906279296875,0.03703828590839695,0.18758959193893132,-0.00159877493129771,0,0,0,0,0,0,0
9.035996675491333,1,289.17213609308254,24.804350503720343,-0.14453125,7.34765625,6.7734375,30.4375,-35.0,-23.3125,-0.193359375,0.00390625,-0.015625,0.2431640625,0.3023681640625,0.70233154296875,0.59674072265625,6.943184814453125,-0.17238251953125,7.4411787597656245,0.05489127264122138,0.22596019029007636,0.0061286372366412215,0,0,0,0,0,0,0
9.069329977035522,1,289.46012332890814,24.804350503720343,-0.296875,7.265625,6.8125,29.6875,-35.375,-25.6875,-0.228515625,0.052734375,-0.005859375,0.2393798828125,0.29949951171875,0.70404052734375,0.5977783203125,6.742071875,0.076614453125,7.5465236328125,0.05169372277862596,0.2121041408854962,0.04156814821374046,0,0,0,0,0,0,0
9.102663278579712,1,289.36624037317534,24.813482344150543,-0.296875,7.15625,6.92578125,29.6875,-35.375,-25.6875,-0.21875,0.021484375,0.02734375,0.23565673828125,0.296142578125,0.7061767578125,0.59844970703125,6.76122548828125,0.05746083984375,7.48906279296875,0.032774886091603055,0.21983155305343513,0.04982848535877863,0,0,0,0,0,0,0
9.135996580123901,1,289.3630699168058,24.804350503720343,-0.21875,7.2265625,6.88671875,30.4375,-34.25,-25.3125,-0.21875,0.021484375,0.02734375,0.23565673828125,0.296142578125,0.7061767578125,0.59844970703125,6.87614716796875,-0.143652099609375,7.41244833984375,0.0695467095114504,0.2707258883664122,0.05595712259541985,0,0,0,0,0,0,0
9.16932988166809,1,289.17213609308254,24.804350503720343,-0.18359375,7.30859375,6.8125,30.4375,-33.5625,-26.0625,-0.28125,0.05859375,0.037109375,0.2315673828125,0.29217529296875,0.708740234375,0.598876953125,6.943184814453125,0.0383072265625,7.4603323730468745,0.06741500960305344,0.4199448819541985,0.05835528499236642,0,0,0,0,0,0,0
9.20266318321228,1,289.269185890638,24.7997845786158,-0.296875,7.30859375,6.7734375,30.4375,-33.5625,-26.0625,-0.4921875,0.03125,0.037109375,0.2247314453125,0.28533935546875,0.71258544921875,0.6002197265625,6.694187841796874,-0.0383072265625,7.584830859375,-0.02531393641221374,0.5827534624580153,0.031442573648854964,0,0,0,0,0,0,0
9.23599648475647,1,289.64789188639537,24.808916425565258,-0.296875,7.15625,6.92578125,30.4375,-34.25,-25.3125,-0.4921875,0.03125,0.037109375,0.2247314453125,0.28533935546875,0.71258544921875,0.6002197265625,6.636727001953124,0.09576806640624999,7.60398447265625,-0.008260337145038169,0.7082572945648856,0.08686677126717558,0,0,0,0,0,0,0
9.26932978630066,1,289.0782518784821,24.7997845786158,-0.2578125,6.96484375,7.078125,30.875,-33.5625,-28.875,-0.68359375,-0.01953125,0.056640625,0.21600341796875,0.2738037109375,0.71734619140625,0.60308837890625,6.426037255859375,-0.028730419921875,7.738059765625,0.011457887007633588,0.8233690896183207,0.07247779688549619,0,0,0,0,0,0,0
9.302663087844849,1,289.36624037317534,24.804350503720343,-0.14453125,6.7734375,7.1953125,30.875,-33.5625,-28.875,-0.875,0.037109375,0.060546875,0.20379638671875,0.25927734375,0.72393798828125,0.60595703125,5.899312890625,0.05746083984375,8.25520732421875,0.033840736045801526,0.8939816490839695,0.09139663357251909,0,0,0,0,0,0,0
9.335996389389038,1,289.8420084843761,24.804350503720343,-0.21875,6.390625,7.50390625,30.875,-33.5625,-28.875,-0.875,0.037109375,0.060546875,0.20379638671875,0.25927734375,0.72393798828125,0.60595703125,5.6407391113281244,0.047884033203124995,8.398859423828124,0.026646248854961835,0.8902511742442749,0.1148453325648855,0,0,0,0,0,0,0
9.369329690933228,1,288.98436854588397,24.804350503720343,-0.21875,6.08203125,7.7265625,28.9375,-29.25,-32.0625,-0.8828125,0.029296875,0.09765625,0.19061279296875,0.24359130859375,0.73089599609375,0.6083984375,5.363011718749999,-0.028730419921875,8.79150849609375,0.01945176166412214,0.8372251390229009,0.17400000502290078,0,0,0,0,0,0,0
9.402662992477417,1,288.6025104224883,24.808916425565258,-0.296875,5.77734375,8.0,28.9375,-29.25,-32.0625,-0.80078125,0.005859375,0.158203125,0.1788330078125,0.22845458984375,0.73809814453125,0.609130859375,5.05655390625,-0.21068974609375,8.90643017578125,-0.04689739798473283,0.7620827172519085,0.1684042927633588,0,0,0,0,0,0,0
9.435996294021606,1,289.55400716664815,24.808916425565258,-0.296875,5.5859375,8.15234375,29.3125,-29.625,-30.0625,-0.80078125,0.005859375,0.158203125,0.1788330078125,0.22845458984375,0.73809814453125,0.609130859375,4.9416322265625,-0.24899697265624998,8.896853369140624,-0.07833997163358779,0.7450291179847329,0.08526799633587788,0,0,0,0,0,0,0
9.469329595565796,1,289.36624037317534,24.7997845786158,-0.06640625,5.35546875,8.23046875,28.9375,-26.75,-33.6875,-0.744140625,-0.08203125,0.0625,0.16925048828125,0.2135009765625,0.74371337890625,0.6104736328125,4.7022120605468745,-0.028730419921875,9.0788126953125,-0.09992343320610687,0.7607504048091603,0.08073813403053436,0,0,0,0,0,0,0
9.502662897109985,1,288.89048609528317,24.808916425565258,-0.06640625,5.05078125,8.42578125,28.9375,-26.75,-33.6875,-0.740234375,-0.12890625,0.076171875,0.16021728515625,0.19805908203125,0.74798583984375,0.61285400390625,4.75009609375,-0.354341845703125,8.954314208984375,-0.12017458233587788,0.7564870049923664,0.08233690896183206,0,0,0,0,0,0,0
9.535996198654175,1,288.8873212922976,24.808916425565258,0.1640625,5.01171875,8.3828125,29.3125,-25.3125,-34.875,-0.740234375,-0.12890625,0.076171875,0.16021728515625,0.19805908203125,0.74798583984375,0.61285400390625,4.290409374999999,-0.06703764648437499,9.327809667968749,-0.09619295836641223,0.7892618910839695,0.04982848535877863,0,0,0,0,0,0,0
9.569329500198364,1,288.9812056953308,24.808916425565258,-0.10546875,4.55078125,8.6875,28.1875,-24.9375,-36.0625,-0.791015625,-0.09375,0.021484375,0.15057373046875,0.18194580078125,0.751953125,0.615478515625,3.907337109375,-0.12449848632812499,9.299079248046874,-0.19505054161832064,0.7615497922748092,0.06928024702290077,0,0,0,0,0,0,0
9.602662801742554,1,288.41474564955837,24.808916425565258,-0.02734375,4.3203125,8.7265625,28.1875,-24.9375,-36.0625,-0.775390625,-0.25390625,0.111328125,0.14288330078125,0.1646728515625,0.755859375,0.61737060546875,4.1946413085937495,-0.229843359375,9.6917283203125,-0.10685145790839697,0.7357029308854963,0.220630940519084,0,0,0,0,0,0,0
9.635996103286743,1,288.9875391041043,24.804350503720343,0.125,4.3984375,8.8046875,27.8125,-23.125,-34.875,-0.775390625,-0.25390625,0.111328125,0.14288330078125,0.1646728515625,0.755859375,0.61737060546875,3.83072265625,-0.612915625,9.241618408203124,0.0522266477557252,0.8135099775419848,0.2944410498473283,0,0,0,0,0,0,0
9.669329404830933,1,289.2723582994252,24.813482344150543,0.35546875,4.12890625,8.765625,27.125,-21.75,-37.3125,-0.80078125,0.060546875,0.283203125,0.13275146484375,0.14923095703125,0.762451171875,0.615478515625,3.1028853515624997,-0.565031591796875,9.854534033203125,0.003730474839694657,0.8007197780916031,0.18412557958778628,0,0,0,0,0,0,0
9.702662706375122,1,289.0782518784821,24.813482344150543,0.27734375,3.515625,9.23046875,27.125,-21.75,-37.3125,-0.75390625,-0.044921875,0.130859375,0.1214599609375,0.13385009765625,0.767822265625,0.61468505859375,3.1411925781249996,-0.5746083984375,10.256759912109374,0.035173048488549616,0.6491026221068703,0.12603675708396947,0,0,0,0,0,0,0
9.735996007919312,1,289.08142048429465,24.804350503720343,0.31640625,3.59375,9.3359375,27.5,-20.25,-37.3125,-0.75390625,-0.044921875,0.130859375,0.1214599609375,0.13385009765625,0.767822265625,0.61468505859375,3.0071172851562498,-0.7278373046875,9.873687646484374,0.04076876074809161,0.5387871518473283,0.06634915964885496,0,0,0,0,0,0,0
9.769329309463501,1,289.36624037317534,24.808916425565258,0.31640625,3.32421875,9.26171875,27.125,-19.5625,-40.0625,-0.537109375,0.03515625,0.0546875,0.11248779296875,0.123046875,0.77093505859375,0.61468505859375,2.7581203125,-0.5458779785156249,10.13226142578125,0.016254211801526718,0.4353997062900764,0.05249311024427481,0,0,0,0,0,0,0
9.80266261100769,1,289.2723582994252,24.808916425565258,0.1640625,3.1328125,9.37890625,27.125,-19.5625,-40.0625,-0.4140625,-0.009765625,0.029296875,0.10577392578125,0.11480712890625,0.77294921875,0.614990234375,2.6144682128906247,-0.51714755859375,10.036493359375,-0.03357427355725191,0.36478714682442753,0.013589586916030535,0,0,0,0,0,0,0
9.83599591255188,1,289.1753027464726,24.808916425565258,0.203125,3.05859375,9.33984375,26.3125,-18.5,-37.25,-0.4140625,-0.009765625,0.029296875,0.10577392578125,0.11480712890625,0.77294921875,0.614990234375,2.5857377929687497,-0.47884033203125,10.046070166015625,0.039169985816793894,0.3464012351145039,0.031442573648854964,0,0,0,0,0,0,0
9.86932921409607,1,289.08142048429465,24.813482344150543,0.31640625,3.05859375,9.3359375,26.0,-18.5,-40.4375,-0.34375,0.03125,0.033203125,0.1005859375,0.10809326171875,0.774169921875,0.61553955078125,2.5474305664062498,-0.612915625,9.95987890625,0.007727412167938932,0.2888453375877863,0.03677182341984733,0,0,0,0,0,0,0
9.902662515640259,1,290.0329562018544,24.813482344150543,0.1640625,2.98046875,9.2578125,26.0,-18.5,-40.4375,-0.2890625,-0.048828125,-0.001953125,0.0965576171875,0.10235595703125,0.77520751953125,0.6158447265625,2.5761609863281247,-0.36391865234375,9.854534033203125,-0.055157735129771,0.3386738229465649,0.03650536093129771,0,0,0,0,0,0,0
9.935995817184448,1,289.36624037317534,24.813482344150543,0.1640625,2.98046875,9.2578125,27.4375,-18.125,-38.0625,-0.2890625,-0.048828125,-0.001953125,0.0965576171875,0.10235595703125,0.77520751953125,0.6158447265625,2.5953145996093747,-0.622492431640625,9.873687646484374,-0.06475038471755726,0.369317009129771,0.04023583577099237,0,0,0,0,0,0,0
9.969329118728638,1,289.2723582994252,24.808916425565258,0.66015625,2.90234375,9.2265625,27.0625,-16.375,-41.3125,-0.390625,-0.0703125,0.013671875,0.092529296875,0.094482421875,0.77618408203125,0.616455078125,2.422932080078125,-0.7852981445312499,9.720458740234374,0.03357427355725191,0.5387871518473283,-0.04369984812213741,0,0,0,0,0,0,0
10.002662420272827,1,289.1784771076577,24.822614171542227,0.27734375,2.48046875,9.23046875,27.0625,-16.375,-41.3125,-0.58203125,0.048828125,-0.02734375,0.084228515625,0.0849609375,0.7767333984375,0.61834716796875,1.656787548828125,-0.24899697265624998,10.046070166015625,-0.04929556038167939,0.6523001719694658,0.03224196111450382,0,0,0,0,0,0,0
10.035995721817017,1,289.1784771076577,24.822614171542227,0.125,2.0625,9.30078125,26.6875,-14.5625,-40.4375,-0.58203125,0.048828125,-0.02734375,0.084228515625,0.0849609375,0.7767333984375,0.61834716796875,1.675941162109375,-0.47884033203125,10.409988818359375,-0.12577029459541986,0.6949341701374047,0.06874732204580153,0,0,0,0,0,0,0
10.069329023361206,1,288.89048609528317,24.822614171542227,0.23828125,2.17578125,9.72265625,27.4375,-13.5,-40.0625,-0.6953125,-0.1171875,0.05078125,0.0755615234375,0.07061767578125,0.7783203125,0.61932373046875,1.867477294921875,-0.44053310546874996,10.505756884765624,0.02238284903816794,0.542517626687023,0.07780704665648856,0,0,0,0,0,0,0
10.102662324905396,1,289.2723582994252,24.813482344150543,0.35546875,2.0625,9.6796875,27.4375,-13.5,-40.0625,-0.48828125,0.060546875,0.080078125,0.0670166015625,0.06072998046875,0.7803955078125,0.61871337890625,1.4173673828125,-0.49799394531249996,10.17056865234375,0.07860643412213741,0.47083921726717565,0.09752527080916032,0,0,0,0,0,0,0
10.135995626449585,1,288.60567337519734,24.813482344150543,0.27734375,1.71484375,9.609375,26.6875,-12.0625,-40.4375,-0.48828125,0.060546875,0.080078125,0.0670166015625,0.06072998046875,0.7803955078125,0.61871337890625,1.22583125,-0.8714894042968749,10.189722265624999,0.06048698490076337,0.4481899057404581,0.06315160978625955,0,0,0,0,0,0,0
10.169328927993774,1,289.46329954081256,24.808916425565258,0.5078125,1.6796875,9.61328125,25.5625,-14.1875,-43.25,-0.455078125,0.06640625,0.04296875,0.058837890625,0.052734375,0.7821044921875,0.61810302734375,0.9959878906249999,-0.21068974609375,11.18571015625,0.040502298259541984,0.3495987849770993,0.0610199098778626,0,0,0,0,0,0,0
10.202662229537964,1,289.46012332890814,24.808916425565258,0.125,1.6015625,9.9140625,25.5625,-14.1875,-43.25,-0.314453125,0.03125,0.09375,0.05224609375,0.04644775390625,0.7833251953125,0.61767578125,1.01514150390625,-0.63206923828125,10.20887587890625,0.05542419761832062,0.3005696870839695,0.09406125845801527,0,0,0,0,0,0,0
10.235995531082153,1,289.08142048429465,24.813482344150543,0.27734375,1.41015625,9.64453125,25.9375,-12.0625,-41.3125,-0.314453125,0.03125,0.09375,0.05224609375,0.04644775390625,0.7833251953125,0.61767578125,1.0726023437499999,-0.6512228515624999,10.084377392578125,0.03357427355725191,0.32055437372519086,0.04076876074809161,0,0,0,0,0,0,0
10.269328832626343,1,289.1753027464726,24.813482344150543,0.27734375,1.44921875,9.61328125,26.6875,-11.3125,-43.25,-0.326171875,0.01953125,0.02734375,0.04705810546875,0.04095458984375,0.78448486328125,0.61700439453125,0.9576806640625,-0.5458779785156249,10.160991845703125,0.014655436870229008,0.31735682386259545,0.03650536093129771,0,0,0,0,0,0,0
10.302662134170532,1,289.9390738113951,24.808916425565258,0.203125,1.29296875,9.64453125,26.6875,-11.3125,-43.25,-0.3046875,0.01171875,0.025390625,0.04229736328125,0.03533935546875,0.78497314453125,0.6170654296875,0.8810662109374999,-0.699106884765625,10.20887587890625,0.02131699908396947,0.30430016192366416,0.0130566619389313,0,0,0,0,0,0,0
10.335995435714722,1,289.0782518784821,24.8180482594762,0.31640625,1.21875,9.6796875,27.0,-10.625,-40.0625,-0.3046875,0.01171875,0.025390625,0.04229736328125,0.03533935546875,0.78497314453125,0.6170654296875,0.833182177734375,-0.55545478515625,10.0748005859375,0.00159877493129771,0.3477335475572519,0.004263399816793893,0,0,0,0,0,0,0
10.369328737258911,1,289.65424420859443,24.808916425565258,0.23828125,1.1015625,9.57421875,26.3125,-9.9375,-43.3125,-0.349609375,-0.001953125,-0.0234375,0.03717041015625,0.0291748046875,0.78497314453125,0.61773681640625,0.5458779785156249,-0.44053310546874996,10.20887587890625,-0.00479632479389313,0.39942727033587794,0.009326187099236643,0,0,0,0,0,0,0
10.4026620388031,1,289.08142048429465,24.808916425565258,0.125,0.98828125,9.64453125,26.3125,-9.9375,-43.3125,-0.412109375,-0.02734375,0.013671875,0.03131103515625,0.02130126953125,0.7850341796875,0.6182861328125,0.32561142578124996,-0.55545478515625,10.09395419921875,0.0,0.45565085541984734,0.05435834766412214,0,0,0,0,0,0,0
10.43599534034729,1,289.46329954081256,24.8180482594762,0.27734375,0.71875,9.57421875,26.25,-7.375,-42.0625,-0.412109375,-0.02734375,0.013671875,0.03131103515625,0.02130126953125,0.7850341796875,0.6182861328125,0.33518823242187495,-0.565031591796875,9.931148486328125,0.018385911709923666,0.5355896019847329,0.0695467095114504,0,0,0,0,0,0,0
10.46932864189148,1,289.46329954081256,24.822614171542227,0.35546875,0.4921875,9.53515625,26.625,-7.75,-44.4375,-0.548828125,0.021484375,0.044921875,0.023681640625,0.01177978515625,0.78582763671875,0.61785888671875,-0.09576806640624999,-0.4213794921875,9.988609326171874,0.05062787282442748,0.05595712259541985,0.011457887007633588,0,0,0,0,0,0,0
10.502661943435669,1,289.36624037317534,24.804350503720343,0.125,-0.23828125,10.7578125,26.625,-7.75,-44.4375,-0.04296875,-0.01171875,0.048828125,0.019287109375,0.006591796875,0.78594970703125,0.617919921875,0.5363011718749999,-0.1149216796875,9.7683427734375,-0.04423277309923664,-0.01119142451908397,0.04476569807633588,0,0,0,0,0,0,0
10.535995244979858,1,289.36624037317534,24.808916425565258,0.23828125,0.453125,9.68359375,27.0,-7.75,-41.6875,-0.04296875,-0.01171875,0.048828125,0.019287109375,0.006591796875,0.78594970703125,0.617919921875,0.047884033203124995,-0.82360537109375,10.342951171874999,0.00985911207633588,-0.005595712259541985,0.006661562213740459,0,0,0,0,0,0,0
10.569328546524048,1,289.36624037317534,24.813482344150543,0.5078125,0.4921875,9.68359375,27.0,-7.0625,-43.6875,-0.009765625,-0.01171875,0.0,0.02008056640625,0.00616455078125,0.78607177734375,0.61773681640625,0.15322890625,-0.565031591796875,10.160991845703125,0.0959264958778626,0.021583461572519086,-0.023448698992366415,0,0,0,0,0,0,0
10.602661848068237,1,289.1753027464726,24.804350503720343,0.35546875,0.52734375,9.72265625,27.0,-7.0625,-43.6875,-0.03515625,0.083984375,-0.03515625,0.01837158203125,0.00677490234375,0.7855224609375,0.6185302734375,0.19153613281249998,-0.469263525390625,10.13226142578125,0.13669525662595422,0.021583461572519086,0.010924962030534353,0,0,0,0,0,0,0
10.635995149612427,1,289.2723582994252,24.813482344150543,0.23828125,0.453125,9.71875,27.0,-9.5625,-41.6875,-0.03515625,0.083984375,-0.03515625,0.01837158203125,0.00677490234375,0.7855224609375,0.6185302734375,0.143652099609375,-0.40222587890625,10.32379755859375,0.04076876074809161,0.00799387465648855,0.0053292497709923675,0,0,0,0,0,0,0
10.669328451156616,1,289.7449478427522,24.808916425565258,0.046875,0.453125,9.72265625,27.0,-7.75,-44.4375,-0.01953125,0.03125,-0.0078125,0.0167236328125,0.00750732421875,0.7852783203125,0.618896484375,0.0383072265625,-0.565031591796875,10.32379755859375,0.06181929734351146,0.006661562213740459,-0.004529862305343512,0,0,0,0,0,0,0
10.702661752700806,1,289.36624037317534,24.813482344150543,0.27734375,0.4921875,9.71875,27.0,-7.75,-44.4375,-0.0234375,0.05078125,-0.02734375,0.01593017578125,0.0079345703125,0.784912109375,0.619384765625,0.01915361328125,-0.430956298828125,10.352527978515624,0.04343338563358779,0.010658499541984735,-0.005595712259541985,0,0,0,0,0,0,0
10.735995054244995,1,288.9875391041043,24.808916425565258,0.1640625,0.4921875,9.71875,27.0,-9.5625,-40.0625,-0.0234375,0.05078125,-0.02734375,0.01593017578125,0.0079345703125,0.784912109375,0.619384765625,0.047884033203124995,-0.28730419921875,10.266336718749999,0.00479632479389313,0.0130566619389313,0.008526799633587786,0,0,0,0,0,0,0
10.769328355789185,1,289.65106419343994,24.808916425565258,0.1640625,0.453125,9.71875,25.875,-7.0,-44.8125,-0.01953125,-0.009765625,0.001953125,0.015380859375,0.0079345703125,0.78460693359375,0.6197509765625,0.076614453125,-0.4213794921875,10.160991845703125,0.0018652374198473284,-0.0026646248854961837,0.010924962030534353,0,0,0,0,0,0,0
10.802661657333374,1,289.08142048429465,24.8180482594762,0.1640625,0.453125,9.71875,25.875,-7.0,-44.8125,-0.009765625,0.005859375,0.00390625,0.015380859375,0.0079345703125,0.78460693359375,0.6197509765625,0.086191259765625,-0.47884033203125,10.228029492187499,0.030376723694656493,0.00985911207633588,0.005595712259541985,0,0,0,0,0,0,0
10.835994958877563,1,289.46329954081256,24.813482344150543,0.125,0.453125,9.71875,26.625,-7.375,-43.3125,-0.009765625,0.005859375,0.00390625,0.01556396484375,0.00762939453125,0.7845458984375,0.619873046875,0.0,-0.373495458984375,10.275913525390624,0.007460949679389314,0.002931087374045802,0.014921899358778627,0,0,0,0,0,0,0
10.869328260421753,1,289.55400716664815,24.813482344150543,0.0859375,0.453125,9.68359375,26.25,-8.125,-43.3125,-0.013671875,-0.005859375,-0.0078125,0.01556396484375,0.007568359375,0.78424072265625,0.62017822265625,0.05746083984375,-0.316034619140625,10.28549033203125,-0.05569066010687024,0.0130566619389313,0.02211638654961832,0,0,0,0,0,0,0
10.902661561965942,1,288.89048609528317,24.813482344150543,0.125,0.453125,9.68359375,26.25,-8.125,-43.3125,-0.013671875,-0.09765625,0.0078125,0.016845703125,0.00634765625,0.78411865234375,0.620361328125,0.09576806640624999,-0.507570751953125,10.304643945312499,-0.12950076943511452,-0.007460949679389314,0.018385911709923666,0,0,0,0,0,0,0
10.935994863510132,1,289.46329954081256,24.8180482594762,0.23828125,0.453125,9.71875,27.0,-8.125,-42.9375,-0.013671875,-0.09765625,0.0078125,0.016845703125,0.00634765625,0.78411865234375,0.620361328125,0.09576806640624999,-0.74699091796875,10.24718310546875,-0.059421134946564896,0.006661562213740459,0.011990811984732825,0,0,0,0,0,0,0
10.969328165054321,1,289.08142048429465,24.813482344150543,0.4296875,0.453125,9.72265625,26.625,-7.0625,-42.5625,-0.015625,-0.076171875,0.0,0.018798828125,0.0045166015625,0.78399658203125,0.62042236328125,0.06703764648437499,-0.6512228515624999,10.180145458984374,0.02717917383206107,0.0053292497709923675,0.010658499541984735,0,0,0,0,0,0,0
11.00266146659851,1,289.36624037317534,24.808916425565258,0.39453125,0.453125,9.71875,26.625,-7.0625,-42.5625,-0.01953125,0.041015625,0.0,0.0184326171875,0.00445556640625,0.783935546875,0.62060546875,0.086191259765625,-0.296881005859375,10.256759912109374,0.03890352332824428,-0.0021316999083969466,0.012523736961832063,0,0,0,0,0,0,0
11.0359947681427,1,289.1784771076577,24.804350503720343,0.125,0.4921875,9.68359375,26.25,-7.0625,-41.6875,-0.01953125,0.041015625,0.0,0.0184326171875,0.00445556640625,0.783935546875,0.62060546875,0.1149216796875,-0.718260498046875,10.275913525390624,0.018918836687022902,-0.0021316999083969466,0.007727412167938932,0,0,0,0,0,0,0
11.06932806968689,1,288.98436854588397,24.804350503720343,0.4296875,0.453125,9.72265625,25.5,-6.6875,-44.5,-0.01953125,0.005859375,-0.001953125,0.01812744140625,0.0042724609375,0.7838134765625,0.6207275390625,0.047884033203124995,-0.82360537109375,10.304643945312499,0.2001133289007634,0.011990811984732825,0.00985911207633588,0,0,0,0,0,0,0
11.102661371231079,1,288.6995551322383,24.813482344150543,0.5859375,0.453125,9.7578125,25.5,-6.6875,-44.5,-0.01953125,0.21484375,0.0,0.0150146484375,0.00640869140625,0.78369140625,0.62091064453125,0.06703764648437499,-0.22026655273437498,10.256759912109374,0.16680551783206107,0.00985911207633588,0.010658499541984735,0,0,0,0,0,0,0
11.135994672775269,1,289.46012332890814,24.813482344150543,-0.02734375,0.453125,9.68359375,26.25,-6.75,-40.9375,-0.01953125,0.21484375,0.0,0.0150146484375,0.00640869140625,0.78369140625,0.62091064453125,0.09576806640624999,-0.32561142578124996,10.141838232421874,0.0319754986259542,0.0013323124427480919,0.02771209880916031,0,0,0,0,0,0,0
11.169327974319458,1,289.8420084843761,24.808916425565258,-0.02734375,0.453125,9.68359375,27.0,-7.75,-44.5,-0.015625,0.03125,0.009765625,0.0133056640625,0.00738525390625,0.78375244140625,0.62091064453125,0.05746083984375,-0.33518823242187495,10.122684619140625,0.0005329249770992366,0.00319754986259542,0.021583461572519086,0,0,0,0,0,0,0
11.202661275863647,1,289.36624037317534,24.804350503720343,0.0078125,0.453125,9.68359375,27.0,-7.75,-44.5,-0.017578125,-0.072265625,0.005859375,0.01385498046875,0.0067138671875,0.78369140625,0.6209716796875,0.09576806640624999,-0.5458779785156249,10.295067138671874,-0.06208575983206107,0.005062787282442748,0.029044411251908403,0,0,0,0,0,0,0
11.235994577407837,1,288.89048609528317,24.808916425565258,0.0078125,0.453125,9.68359375,27.375,-6.75,-41.6875,-0.017578125,-0.072265625,0.005859375,0.01385498046875,0.0067138671875,0.78369140625,0.6209716796875,0.01915361328125,-0.507570751953125,10.304643945312499,0.004263399816793893,0.011457887007633588,0.033840736045801526,0,0,0,0,0,0,0
11.269327878952026,1,290.02977628814244,24.813482344150543,0.125,0.453125,9.68359375,26.625,-8.5,-42.9375,-0.009765625,-0.009765625,0.017578125,0.0146484375,0.00579833984375,0.7838134765625,0.62078857421875,0.09576806640624999,-0.40222587890625,10.275913525390624,-0.04556508554198474,0.00479632479389313,0.02584686138931298,0,0,0,0,0,0,0
11.302661180496216,1,289.46012332890814,24.808916425565258,0.1640625,0.453125,9.71875,26.625,-8.5,-42.9375,-0.015625,-0.08984375,0.01953125,0.0157470703125,0.00457763671875,0.783935546875,0.62066650390625,0.09576806640624999,-0.6416460449218749,10.160991845703125,-0.05196018526717557,0.008526799633587786,0.034373661022900764,0,0,0,0,0,0,0
11.335994482040405,1,289.55400716664815,24.808916425565258,0.39453125,0.453125,9.71875,26.625,-7.75,-43.3125,-0.015625,-0.08984375,0.01953125,0.0157470703125,0.00457763671875,0.783935546875,0.62066650390625,0.06703764648437499,-0.51714755859375,10.122684619140625,-0.031709036137404584,0.00479632479389313,0.014122511893129772,0,0,0,0,0,0,0
11.369327783584595,1,289.65106419343994,24.808916425565258,0.0859375,0.4140625,9.68359375,25.5,-6.375,-42.5,-0.013671875,-0.0390625,0.00390625,0.01654052734375,0.003662109375,0.783935546875,0.62066650390625,0.105344873046875,-0.584185205078125,10.228029492187499,-0.12950076943511452,0.0018652374198473284,0.010658499541984735,0,0,0,0,0,0,0
11.402661085128784,1,289.36624037317534,24.8180482594762,0.39453125,0.453125,9.71875,25.5,-6.375,-42.5,-0.01171875,-0.05859375,-0.001953125,0.0181884765625,0.0020751953125,0.78375244140625,0.620849609375,0.076614453125,-0.7565677246093749,10.333374365234375,0.09832465827480917,0.0061286372366412215,0.015721286824427482,0,0,0,0,0,0,0
11.435994386672974,1,288.69639413194693,24.7997845786158,0.66015625,0.453125,9.7578125,26.625,-7.75,-41.6875,-0.01171875,-0.05859375,-0.001953125,0.0181884765625,0.0020751953125,0.78375244140625,0.620849609375,0.05746083984375,-0.70868369140625,10.28549033203125,0.10978254528244276,0.0005329249770992366,0.014921899358778627,0,0,0,0,0,0,0
11.469327688217163,1,290.12683947430617,24.808916425565258,0.046875,0.453125,9.6796875,26.625,-7.375,-43.6875,-0.015625,0.12890625,-0.001953125,0.01580810546875,0.00360107421875,0.78369140625,0.6209716796875,0.047884033203124995,-0.5458779785156249,10.228029492187499,0.023448698992366415,0.0053292497709923675,-0.015188361847328247,0,0,0,0,0,0,0
11.502660989761353,1,289.0782518784821,24.808916425565258,0.0078125,0.4921875,9.71875,26.625,-7.375,-43.6875,-0.017578125,0.0234375,-0.09765625,0.0152587890625,0.00372314453125,0.7828369140625,0.62200927734375,-0.047884033203124995,-0.59376201171875,10.13226142578125,-0.024514548946564886,-0.004529862305343512,-0.003730474839694657,0,0,0,0,0,0,0
11.535994291305542,1,288.7934377712717,24.808916425565258,0.27734375,0.4140625,9.68359375,26.625,-7.375,-43.6875,-0.017578125,0.0234375,-0.09765625,0.0152587890625,0.00372314453125,0.7828369140625,0.62200927734375,0.05746083984375,-0.19153613281249998,10.141838232421874,-0.07887289661068704,-0.0034640123511450386,0.005595712259541985,0,0,0,0,0,0,0
11.569327592849731,1,289.8420084843761,24.7997845786158,0.046875,0.453125,9.6796875,27.0,-7.75,-43.75,-0.01953125,-0.083984375,-0.001953125,0.0159912109375,0.0028076171875,0.78240966796875,0.62255859375,0.26815058593749996,-0.7852981445312499,9.375693701171874,-0.016520674290076337,0.014921899358778627,-0.08846554619847329,0,0,0,0,0,0,0
11.602660894393921,1,289.65424420859443,24.7997845786158,0.203125,0.4921875,9.7578125,27.0,-7.75,-43.75,-0.0234375,0.0859375,-0.12109375,0.01531982421875,0.0028076171875,0.78070068359375,0.624755859375,0.047884033203124995,-0.277727392578125,10.314220751953124,0.1334977067633588,0.007194487190839696,-0.04316692314503817,0,0,0,0,0,0,0
11.63599419593811,1,289.74812590549396,24.813482344150543,0.5859375,0.453125,9.71875,27.375,-6.75,-41.75,-0.0234375,0.0859375,-0.12109375,0.01531982421875,0.0028076171875,0.78070068359375,0.624755859375,-0.028730419921875,-0.74699091796875,10.256759912109374,0.04290046065648855,0.00479632479389313,0.007460949679389314,0,0,0,0,0,0,0
11.6693274974823,1,288.98436854588397,24.7997845786158,0.1640625,0.4140625,9.71875,27.375,-7.0625,-43.375,-0.017578125,0.0234375,-0.005859375,0.013916015625,0.0035400390625,0.780029296875,0.62554931640625,0.009576806640625,-0.239420166015625,10.256759912109374,0.007727412167938932,0.00639509972519084,-0.0026646248854961837,0,0,0,0,0,0,0
11.70266079902649,1,289.269185890638,24.813482344150543,0.203125,0.453125,9.71875,27.375,-7.0625,-43.375,-0.01953125,0.015625,-0.017578125,0.01348876953125,0.0035400390625,0.77978515625,0.62591552734375,0.12449848632812499,-0.26815058593749996,10.084377392578125,0.04343338563358779,0.010392037053435116,-0.01945176166412214,0,0,0,0,0,0,0
